"Time (s)","Linear Acceleration x (m/s^2)","Linear Acceleration y (m/s^2)","Linear Acceleration z (m/s^2)","Absolute acceleration (m/s^2)"
8.849712700E-2,7.744483948E-1,-3.987789154E-3,1.267951012E0,1.485761080E0
1.054965480E-1,8.671641350E-2,-1.182441711E-1,3.218860626E-1,3.537118286E-1
1.224751760E-1,-1.685440540E-1,-1.630537510E-1,-5.471496582E-1,5.952867984E-1
1.394814740E-1,-8.111155033E-2,-1.225450039E-1,-7.663059235E-1,7.802699084E-1
1.564749950E-1,3.023386002E-3,-5.953979492E-2,-6.746196747E-1,6.772487235E-1
1.734688200E-1,-1.410368681E-1,8.282351494E-2,-6.473722458E-1,6.677139787E-1
1.904632040E-1,-3.601634502E-1,6.469154358E-2,-7.836236954E-1,8.648518964E-1
2.074564500E-1,-6.479579210E-1,6.873250008E-2,-8.513031006E-1,1.072049716E0
2.244504600E-1,-7.026261687E-1,1.703777313E-1,-9.002895355E-1,1.154657244E0
2.414364120E-1,-5.158814192E-1,2.295374870E-1,-8.858652115E-1,1.050513336E0
2.584304200E-1,-2.770946026E-1,2.432527542E-1,-7.370996475E-1,8.241779004E-1
2.754349170E-1,-9.856224060E-2,2.868063450E-1,-4.119253159E-1,5.115221018E-1
2.924267700E-1,-4.508316517E-2,3.147590160E-1,-1.939706802E-1,3.724652397E-1
3.094114900E-1,2.391883135E-1,3.126487732E-1,1.305866241E-1,4.147447059E-1
3.264219800E-1,5.849844217E-1,3.121409416E-1,4.771690369E-1,8.169020938E-1
3.434078900E-1,7.300342321E-1,1.832597256E-1,8.020677567E-1,1.099930358E0
3.604016850E-1,7.942656279E-1,-4.677915573E-2,1.307624817E0,1.530662876E0
3.773920210E-1,6.869993210E-1,-2.014822960E-1,1.739694595E0,1.881249709E0
3.943934370E-1,2.742269039E-1,-9.790205956E-2,1.390443802E0,1.420605214E0
4.113840370E-1,1.501771212E-1,8.105754852E-3,3.408079147E-1,3.725169872E-1
4.283850140E-1,2.344272137E-1,-8.261203766E-3,-3.787574768E-1,4.455127296E-1
4.453677630E-1,3.790369034E-1,7.193732262E-2,-4.498424530E-1,5.926231391E-1
4.623594420E-1,9.618766308E-1,-2.589015961E-1,1.933403015E-1,1.014700528E0
4.793303890E-1,1.324157834E0,-6.434829235E-1,1.270561218E0,1.944682507E0
4.963497080E-1,1.085380197E0,-8.723974228E-1,1.578500748E0,2.104944666E0
5.133496470E-1,3.801622391E-1,-7.957875729E-1,1.056823730E0,1.376472879E0
5.303278980E-1,-3.446723223E-1,-6.823949814E-1,1.042976379E-1,7.715827354E-1
5.473311940E-1,-4.770065546E-1,-4.772558212E-1,-3.744697571E-1,7.717097712E-1
5.643314810E-1,-2.367829680E-1,-2.294745445E-1,-6.764497757E-1,7.525350753E-1
5.813043500E-1,9.633064270E-3,-1.377623081E-1,-1.152634621E0,1.160878038E0
5.982929470E-1,1.731265783E-1,-1.280686855E-1,-1.463525295E0,1.479283844E0
6.152987870E-1,4.178235531E-1,-1.525347233E-1,-1.427980900E0,1.495651301E0
6.322905270E-1,6.165516376E-1,-8.904409409E-2,-1.218238831E0,1.368272861E0
6.492724200E-1,5.812404752E-1,-3.780961037E-2,-9.408760071E-1,1.106579287E0
6.662692780E-1,3.423766494E-1,4.037714005E-2,-7.720718384E-1,8.455453903E-1
6.832650260E-1,-9.874618053E-2,1.753969193E-1,-6.798343658E-1,7.090061018E-1
7.002536740E-1,-3.957319260E-1,3.541967869E-1,-6.694593430E-1,8.545378476E-1
7.172504900E-1,-5.722634196E-1,5.233595371E-1,-6.909370422E-1,1.038645571E0
7.342448650E-1,-4.929080307E-1,6.376695633E-1,-8.116703033E-1,1.143848539E0
7.512370120E-1,-4.032432735E-1,7.329568863E-1,-7.692871094E-1,1.136500590E0
7.682323540E-1,1.344829798E-3,6.355566978E-1,-5.065288544E-1,8.127149593E-1
7.852266070E-1,3.108581901E-2,5.991349220E-1,-4.951267242E-1,7.778685339E-1
8.022208290E-1,-2.295165360E-1,6.702291965E-1,-5.029172897E-1,8.687984902E-1
8.192130980E-1,-3.192416728E-1,6.395599842E-1,-4.122695923E-1,8.251778207E-1
8.362077690E-1,-2.109143138E-1,5.781738758E-1,6.373977661E-2,6.187347069E-1
8.532033340E-1,3.271549940E-2,4.147891998E-1,5.794286728E-1,7.133428145E-1
8.702049010E-1,-9.073165059E-2,3.578341007E-1,7.430324554E-1,8.296834974E-1
8.871983700E-1,-6.878323555E-1,4.357705116E-1,6.639595032E-1,1.050643379E0
9.041922980E-1,-1.124324679E0,3.872759342E-1,6.003055573E-1,1.332086858E0
9.211762860E-1,-8.075013161E-1,2.456212044E-1,8.546571732E-1,1.201177354E0
9.381805190E-1,-2.675072253E-1,3.555035591E-2,1.597380638E0,1.620015076E0
9.551882000E-1,-1.097579449E-1,-3.646759987E-1,2.184122086E0,2.217075704E0
9.721810290E-1,-2.265856862E-1,-7.753903866E-1,2.423230171E0,2.554332748E0
9.891749450E-1,-3.711676300E-1,-9.789024591E-1,2.509552002E0,2.719166542E0
1.006168986E0,-5.150521994E-1,-8.394129276E-1,2.047622681E0,2.272146886E0
1.023162414E0,-5.417832136E-1,-5.001665354E-1,8.042678833E-1,1.091119811E0
1.040156484E0,-4.948694706E-1,-1.569561958E-1,-3.660459518E-1,6.352327756E-1
1.057144754E0,-2.817904651E-1,1.191143990E-1,-1.078441620E0,1.120995287E0
1.074150218E0,1.147010028E-1,1.088821888E-1,-1.022688866E0,1.034844997E0
1.091124645E0,5.258902907E-1,-1.235220432E-1,-2.842454910E-1,6.104209959E-1
1.108118989E0,6.890509129E-1,-4.130120277E-1,2.998695374E-1,8.574915947E-1
1.125101900E0,8.833025098E-1,-5.377256870E-1,5.046873093E-1,1.150687411E0
1.142105491E0,7.441040874E-1,-5.885276794E-1,2.111349106E-1,9.719226681E-1
1.159101677E0,3.642792702E-1,-5.808598995E-1,-3.256406784E-1,7.590385109E-1
1.176110498E0,6.101793051E-2,-4.820935726E-1,-8.796577454E-1,1.004955297E0
1.193101240E0,-3.320777416E-2,-3.833498955E-1,-1.174828529E0,1.236237021E0
1.210095453E0,-3.045409918E-2,-2.667601109E-1,-1.500754356E0,1.524582581E0
1.227088830E0,2.812474966E-2,-2.008996010E-1,-1.693731308E0,1.705836274E0
1.244083634E0,-1.360237598E-2,-1.837217808E-1,-1.738101482E0,1.747837372E0
1.261076859E0,3.714555502E-2,-1.792690754E-1,-1.668412209E0,1.678426791E0
1.278065293E0,1.592491865E-1,-2.328636646E-1,-1.423465729E0,1.451151429E0
1.295048712E0,3.696138859E-1,-2.922043800E-1,-1.033971786E0,1.136263825E0
1.312058713E0,5.734778047E-1,-3.282811642E-1,-4.115343094E-1,7.784637455E-1
1.329052477E0,5.765706897E-1,-3.040077686E-1,-2.001838684E-1,6.818563373E-1
1.346034625E0,6.012638807E-1,-2.615246773E-1,-2.318115234E-1,6.954494903E-1
1.363039935E0,7.101420164E-1,-3.036515713E-1,-1.764602661E-1,7.922399799E-1
1.380036883E0,9.779678583E-1,-4.213156700E-1,2.415161133E-1,1.091905700E0
1.397049945E0,9.152901173E-1,-3.905751705E-1,7.492933273E-1,1.245690753E0
1.414033843E0,8.155764341E-1,-4.032752514E-1,7.141962051E-1,1.156664198E0
1.431015268E0,8.010534048E-1,-5.273826122E-1,9.700078964E-1,1.364087349E0
1.448009714E0,9.160882235E-1,-6.477537155E-1,1.857823372E0,2.170324904E0
1.465001689E0,1.034286261E0,-9.637869596E-1,2.866788864E0,3.196421712E0
1.481997813E0,1.013710141E0,-1.185075045E0,3.589348793E0,3.913494074E0
1.498990774E0,6.483900547E-1,-1.154077053E0,3.189694405E0,3.453469835E0
1.515984692E0,1.414161921E-1,-8.250248432E-1,1.423754692E0,1.651587707E0
1.532979097E0,-2.740722895E-2,-5.692555904E-1,-4.026241302E-1,6.977888461E-1
1.549972831E0,-6.103205681E-2,-1.815428734E-1,-1.414978027E0,1.427881488E0
1.566963635E0,3.084237576E-1,-3.390741348E-2,-1.782893181E0,1.809691416E0
1.583947482E0,1.004015207E0,-1.276657581E-1,-1.607689857E0,1.899739919E0
1.600931359E0,1.788578272E0,-3.291318417E-1,-1.054368019E0,2.102149358E0
1.617932855E0,2.262836695E0,-5.196204185E-1,-4.727392197E-1,2.369370730E0
1.634931065E0,2.244980097E0,-7.424875498E-1,8.406352997E-2,2.366070598E0
1.651922826E0,1.387874484E0,-8.044811487E-1,2.400531769E-1,1.622039158E0
1.668932846E0,5.263193846E-1,-8.155890703E-1,-2.353057861E-1,9.987824784E-1
1.685914547E0,1.081509590E-1,-6.627528667E-1,-6.657629013E-1,9.456099794E-1
1.702904099E0,3.953319788E-2,-5.137524605E-1,-1.038600922E0,1.159394816E0
1.719905036E0,1.560140848E-1,-3.924353123E-1,-1.481190205E0,1.540217612E0
1.736912095E0,4.225109220E-1,-3.318774700E-1,-1.724201202E0,1.805970077E0
1.753879606E0,5.778427124E-1,-2.734169960E-1,-1.689335346E0,1.806242776E0
1.770888578E0,6.654850841E-1,-2.302298546E-1,-1.510908127E0,1.666949175E0
1.787884621E0,5.691224337E-1,-1.803874969E-1,-1.180560112E0,1.322936949E0
1.804873340E0,2.265597582E-1,-4.660964012E-2,-8.712787628E-1,9.014590757E-1
1.821862772E0,-7.541674376E-2,1.163949966E-1,-7.243089676E-1,7.374679390E-1
1.838867929E0,-2.828520238E-1,3.417565823E-1,-6.929311752E-1,8.227736277E-1
1.855862386E0,-3.561952412E-1,4.681627750E-1,-5.070905685E-1,7.766545426E-1
1.872856711E0,-2.284342051E-1,6.071927547E-1,3.299331665E-2,6.495796998E-1
1.889850464E0,-2.928034961E-1,9.581222534E-1,4.106082916E-1,1.082742494E0
1.906843822E0,-7.265773416E-2,1.210381269E0,7.859649658E-1,1.445006191E0
1.923838167E0,5.834156275E-1,1.035039186E0,1.739022255E0,2.106152491E0
1.940836753E0,1.001124382E0,4.983491898E-1,3.288870811E0,3.473798088E0
1.957798260E0,7.359031439E-1,1.517772675E-2,4.662162781E0,4.719909490E0
1.974817356E0,1.729035378E-2,-1.963013411E-1,4.763386726E0,4.767461198E0
1.991813327E0,-2.188809663E-1,-1.660883427E-1,3.789608002E0,3.799555635E0
2.008794406E0,-9.427121282E-2,-6.137371063E-2,2.011735916E0,2.014878455E0
2.025800399E0,1.619664729E-1,1.501450539E-1,5.240058899E-1,5.686465055E-1
2.042796472E0,6.763313413E-1,1.582331657E-1,-3.529834747E-1,7.791400075E-1
2.059785965E0,1.261249304E0,-6.184554100E-2,-5.101795197E-1,1.361931650E0
2.076769556E0,1.591134667E0,-4.259831905E-1,-6.800460815E-2,1.648573879E0
2.093763831E0,1.368497610E0,-7.257322073E-1,1.542758942E-1,1.556686865E0
2.110757157E0,1.070069551E0,-9.797772169E-1,3.522033691E-1,1.493003501E0
2.127751308E0,7.501735091E-1,-1.146612644E0,1.683635712E-1,1.380516983E0
2.144735277E0,5.168570876E-1,-1.174569607E0,-9.497261047E-2,1.286769135E0
2.161732460E0,4.715479314E-1,-1.113838315E0,-4.688558578E-1,1.297235160E0
2.178745796E0,5.224791169E-1,-1.075414419E0,-1.030084610E0,1.578155539E0
2.195717996E0,6.165397167E-1,-9.803487062E-1,-1.485080242E0,1.883259975E0
2.212734404E0,8.063268661E-1,-9.330382347E-1,-1.908718109E0,2.272427817E0
2.229717762E0,1.058573484E0,-8.893303871E-1,-2.055729389E0,2.477399782E0
2.246708688E0,1.367745996E0,-8.319799900E-1,-1.898224354E0,2.483178509E0
2.263715739E0,1.816761732E0,-9.007992744E-1,-1.766194820E0,2.689146085E0
2.280709340E0,1.921877861E0,-9.486820698E-1,-1.681399822E0,2.724099401E0
2.297692505E0,1.885488033E0,-1.023355246E0,-1.577022076E0,2.662577644E0
2.314700725E0,1.907998085E0,-1.189719915E0,-1.343001842E0,2.619073141E0
2.331687064E0,1.986726046E0,-1.346539259E0,-8.177442551E-1,2.535538212E0
2.348684653E0,1.944127560E0,-1.525168061E0,-1.525211334E-1,2.475688244E0
2.365677157E0,1.759287715E0,-1.584333897E0,4.412431717E-1,2.408298714E0
2.382659518E0,1.418979883E0,-1.351652980E0,5.780181885E-1,2.043177602E0
2.399663099E0,1.547803521E0,-1.134633899E0,1.848039627E-1,1.928015127E0
2.416668796E0,2.360167027E0,-1.134827256E0,2.008152008E-1,2.626508717E0
2.433655105E0,3.034465551E0,-1.410344124E0,1.237687111E0,3.567761359E0
2.450647577E0,2.981654644E0,-1.849464059E0,2.491639137E0,4.303376269E0
2.467641708E0,2.087715864E0,-2.060557604E0,3.084859848E0,4.256855113E0
2.484635931E0,8.130364418E-1,-1.752869368E0,2.482749939E0,3.146049354E0
2.501629695E0,2.783240974E-1,-1.257894635E0,1.375943184E0,1.884935771E0
2.518621028E0,5.098374486E-1,-7.454609871E-1,5.506772995E-1,1.057776817E0
2.535617296E0,1.304255962E0,-4.142580032E-1,-1.270294189E-1,1.374347038E0
2.552595527E0,2.053959608E0,-2.874073982E-1,-6.247224808E-1,2.166017373E0
2.569592089E0,2.591460466E0,-2.727127075E-1,-7.109251022E-1,2.701009824E0
2.586585629E0,2.946861744E0,-3.245117664E-1,-7.329549789E-1,3.053935989E0
2.603579903E0,2.855190277E0,-4.162448645E-1,-6.349391937E-1,2.954406723E0
2.620573800E0,2.163080692E0,-4.009447098E-1,-5.792684555E-1,2.274912457E0
2.637562661E0,1.511482716E0,-4.178718328E-1,-4.102048874E-1,1.620945686E0
2.654561187E0,1.257421732E0,-3.749246597E-1,-2.385654449E-1,1.333638401E0
2.671559051E0,1.117873430E0,-3.093655109E-1,-1.834888458E-1,1.174315197E0
2.688562184E0,9.982020855E-1,-2.083297968E-1,-4.193935394E-1,1.102587706E0
2.705553122E0,9.621453285E-1,-6.475639343E-2,-8.997650146E-1,1.318898823E0
2.722541078E0,8.795335889E-1,1.340713501E-1,-1.233740807E0,1.521075553E0
2.739543723E0,6.126826406E-1,3.625686169E-1,-1.309156418E0,1.490210236E0
2.756537833E0,2.710309029E-1,5.459499359E-1,-1.148153305E0,1.299913495E0
2.773531832E0,4.576507211E-2,6.975650787E-1,-8.344573975E-1,1.088581935E0
2.790511457E0,-4.586401582E-2,7.664527893E-1,-4.817752838E-1,9.064550790E-1
2.807519269E0,-1.103534102E-1,7.577025890E-1,-1.584300995E-1,7.819150753E-1
2.824516504E0,-2.196989655E-1,5.748847723E-1,2.921037674E-1,6.812376588E-1
2.841497115E0,-4.572701752E-1,5.261785984E-1,7.742290497E-1,1.041820787E0
2.858497532E0,-6.368333101E-1,5.689226389E-1,1.067389488E0,1.366949141E0
2.875486354E0,-1.392130852E-1,5.588015318E-1,1.552717209E0,1.656070701E0
2.892489212E0,7.113913298E-1,2.579804659E-1,2.425697327E0,2.540991748E0
2.909483292E0,1.015836716E0,-7.763612270E-2,3.367624283E0,3.518358269E0
2.926476692E0,7.726698518E-1,-1.496392488E-1,3.391066551E0,3.481198495E0
2.943470751E0,4.812651873E-1,-7.556200027E-2,1.963510513E0,2.023042098E0
2.960464128E0,6.526572704E-1,1.155397892E-1,6.798820496E-1,9.495001616E-1
2.977458411E0,1.131524324E0,1.436514854E-1,1.849660873E-1,1.155506599E0
2.994448444E0,1.677893758E0,1.852703094E-2,7.083225250E-2,1.679490376E0
3.011448738E0,2.016245842E0,-1.445869207E-1,4.455537796E-1,2.069944647E0
3.028439634E0,2.049025059E0,-4.044468403E-1,7.231483459E-1,2.210209146E0
3.045430124E0,1.771161914E0,-5.640168190E-1,6.916894913E-1,1.983321419E0
3.062425292E0,1.416351080E0,-5.560885668E-1,4.766607285E-1,1.594518838E0
3.079408386E0,1.247580409E0,-4.974091053E-1,-4.274845123E-2,1.343763419E0
3.096402029E0,1.225488424E0,-4.037040472E-1,-6.318101883E-1,1.436656866E0
3.113396292E0,1.119204998E0,-3.256559372E-1,-1.399445534E0,1.821296082E0
3.130389649E0,9.501403570E-1,-2.382545471E-1,-2.129393578E0,2.343896102E0
3.147396750E0,9.494749308E-1,-1.738927364E-1,-2.606714249E0,2.779694318E0
3.164393923E0,9.619200230E-1,-1.525363922E-1,-2.593091965E0,2.769960906E0
3.181359032E0,1.061505795E0,-1.368627548E-1,-2.250518322E0,2.492059125E0
3.198367698E0,1.193991303E0,-1.358788013E-1,-1.602975368E0,2.003399190E0
3.215363193E0,1.184074879E0,-1.773855686E-1,-9.183616638E-1,1.508935752E0
3.232366041E0,1.126526356E0,-2.113835812E-1,-3.602399826E-1,1.201464728E0
3.249355778E0,1.211370945E0,-2.317538261E-1,-3.110885620E-2,1.233733019E0
3.266351466E0,1.381951809E0,-2.377812862E-1,4.891920090E-1,1.485139577E0
3.283350295E0,1.331297517E0,-2.582355738E-1,9.119100571E-1,1.634202754E0
3.300342189E0,1.139705777E0,-2.581466436E-1,1.052544594E0,1.572710739E0
3.317322902E0,9.871764183E-1,-2.428920269E-1,9.894847870E-1,1.418659213E0
3.334329566E0,8.575782776E-1,-1.358957291E-1,9.475641251E-1,1.285218239E0
3.351318346E0,6.781526804E-1,7.884407043E-2,8.079662323E-1,1.057788674E0
3.368322567E0,6.566519141E-1,3.962833881E-1,3.868446350E-1,8.590000184E-1
3.385309975E0,9.190873504E-1,4.748294353E-1,-6.498146057E-2,1.036536126E0
3.402297819E0,1.414306045E0,3.284198046E-1,-2.046813965E-1,1.466293160E0
3.419298765E0,1.851182818E0,-1.983433962E-1,7.720613480E-1,2.015513993E0
3.436303690E0,1.660944939E0,-7.619557381E-1,1.913461685E0,2.645874195E0
3.453273884E0,8.318799734E-1,-9.807966352E-1,2.290195465E0,2.626591251E0
3.470283335E0,-1.366645396E-1,-7.439356446E-1,1.349709511E0,1.547201733E0
3.487241993E0,-3.125125766E-1,-4.408886433E-1,4.604272842E-1,7.099578793E-1
3.504268606E0,-2.426734567E-2,-1.208896637E-1,-1.773271561E-1,2.159817935E-1
3.521265371E0,4.019966125E-1,-3.189170361E-2,-7.480659485E-1,8.498358786E-1
3.538266491E0,6.727035642E-1,7.321536541E-2,-1.119073868E0,1.307752613E0
3.555239351E0,8.247830868E-1,1.161563396E-1,-1.360379219E0,1.595114747E0
3.572230643E0,7.870949507E-1,5.412614346E-2,-1.233056068E0,1.463856335E0
3.589215130E0,5.398752093E-1,6.320166588E-2,-8.259048462E-1,9.887256987E-1
3.606209964E0,2.202654928E-1,1.403053999E-1,-6.198940277E-1,6.726597194E-1
3.623214796E0,-4.442896694E-2,2.791588306E-1,-7.348842621E-1,7.873744119E-1
3.640206231E0,-2.261138111E-1,4.236178398E-1,-1.108142853E0,1.207708620E0
3.657193027E0,-2.800710499E-1,5.831893682E-1,-1.397689819E0,1.540157935E0
3.674192591E0,-2.828137279E-1,6.567624807E-1,-1.621231079E0,1.771922903E0
3.691188868E0,-2.711150050E-1,6.473330259E-1,-1.346229553E0,1.518182269E0
3.708192805E0,-3.282715380E-1,6.165723801E-1,-8.258342743E-1,1.081631153E0
3.725176215E0,-4.403062761E-1,5.487987995E-1,-2.200012207E-1,7.371908004E-1
3.742182837E0,-6.616404057E-1,5.945948362E-1,1.060810089E-1,8.958594902E-1
3.759185421E0,-7.069371343E-1,7.054291964E-1,2.072467804E-1,1.019971417E0
3.776170601E0,-5.439503193E-1,8.903130293E-1,2.610969543E-1,1.075504932E0
3.793164640E0,-2.996423244E-1,9.941480160E-1,2.599039078E-1,1.070357810E0
3.810157692E0,-2.224495560E-1,1.104650378E0,3.136215210E-1,1.169655813E0
3.827152199E0,-3.926792741E-1,1.298900843E0,2.877836227E-1,1.387140881E0
3.844146046E0,-3.194315135E-1,1.226902604E0,2.883510590E-1,1.300181843E0
3.861139902E0,1.925091743E-1,7.597242594E-1,9.583253860E-1,1.237993650E0
3.878130574E0,2.947849929E-1,1.163042784E-1,2.272040367E0,2.294034068E0
3.895129008E0,3.773352504E-2,-4.934957623E-1,3.285666466E0,3.322734719E0
3.912132375E0,-4.549019337E-1,-7.708550692E-1,3.322917938E0,3.441356844E0
3.929111603E0,-7.655856609E-1,-8.253750205E-1,2.423167229E0,2.671910318E0
3.946124706E0,-9.825271964E-1,-2.470667362E-1,6.275892258E-1,1.191750771E0
3.963083986E0,-1.023594379E0,4.361081123E-2,-8.263797760E-1,1.316263990E0
3.980089653E0,-1.078085661E0,4.435353279E-1,-1.636974335E0,2.009646051E0
3.997098289E0,-8.764522076E-1,6.020045280E-1,-1.801301003E0,2.091712988E0
4.014071323E0,-3.859250844E-1,4.402312040E-1,-1.529087067E0,1.637329821E0
4.031075229E0,-1.348059773E-1,1.645976305E-1,-6.382131577E-1,6.727414556E-1
4.048059217E0,-3.299844265E-2,8.957850933E-2,6.682109833E-2,1.165258157E-1
4.065053756E0,1.045042276E-1,2.603685856E-2,3.884906769E-1,4.031427261E-1
4.082046940E0,6.835645437E-2,-3.938674927E-4,3.506965637E-1,3.572965712E-1
4.099028539E0,-2.248190045E-1,1.376842260E-1,-1.377048492E-1,2.974275650E-1
4.116037136E0,-3.827136755E-1,2.410122156E-1,-7.883014679E-1,9.088321351E-1
4.133032558E0,-3.816922605E-1,3.686964512E-1,-1.200833321E0,1.312869650E0
4.150032793E0,-3.671257198E-1,4.343948364E-1,-1.501153946E0,1.605286061E0
4.167017035E0,-3.965317905E-1,4.523382187E-1,-1.645045280E0,1.751576804E0
4.184011339E0,-4.383296669E-1,4.014323950E-1,-1.499005318E0,1.612543893E0
4.201005257E0,-3.616365790E-1,3.128080368E-1,-1.104535103E0,1.203589497E0
4.217985573E0,-1.670535207E-1,2.808500528E-1,-5.516052246E-1,6.411333362E-1
4.234982196E0,-5.502408743E-2,2.286511660E-1,-1.557331085E-1,2.820670257E-1
4.251976246E0,1.148184538E-1,2.779471874E-1,1.457023621E-2,3.010817300E-1
4.268970040E0,2.695072293E-1,2.587714195E-1,3.419494629E-2,3.751880709E-1
4.285963420E0,2.967588305E-1,1.739010811E-1,1.023254395E-1,3.588563572E-1
4.302957804E0,2.880706191E-1,3.112053871E-2,2.207040787E-1,3.642299547E-1
4.319951121E0,2.233400345E-1,-1.351881027E-2,4.549179077E-1,5.069653164E-1
4.336946350E0,2.271652222E-3,2.913029194E-1,5.139236450E-1,5.907453463E-1
4.353939454E0,1.369085312E-1,1.816372871E-1,5.380544662E-1,5.841563649E-1
4.370934114E0,3.768020868E-1,-8.198857307E-2,9.689273834E-1,1.042843331E0
4.387939201E0,5.210187435E-1,-5.578309298E-1,1.753565788E0,1.912492837E0
4.404930931E0,2.426069975E-1,-1.089526653E0,2.367815018E0,2.617723141E0
4.421906650E0,-6.187109947E-1,-1.095985413E0,2.329195023E0,2.647477436E0
4.506905889E0,-5.000540614E-1,3.197753429E-1,-8.371181488E-1,1.026195464E0
4.523896388E0,-2.214163542E-1,1.554352045E-1,-2.800369263E-2,2.719733654E-1
4.540884018E0,-5.482745171E-2,-5.775475502E-2,9.749193192E-1,9.781663151E-1
4.557875240E0,-3.904938698E-2,-1.641798019E-1,1.669667244E0,1.678174177E0
4.574867205E0,-3.134237528E-1,-1.358174086E-1,1.196416855E0,1.244224300E0
4.591865506E0,-6.465107799E-1,-5.046832561E-2,1.133441925E-2,6.485766797E-1
4.608857368E0,-8.021756411E-1,8.652567863E-2,-9.355545044E-1,1.235408711E0
4.625863533E0,-8.586539030E-1,1.751668453E-1,-1.634707928E0,1.854788386E0
4.642861622E0,-9.674887061E-1,1.553270817E-1,-1.998629570E0,2.225911287E0
4.659852100E0,-1.041581392E0,4.812455177E-2,-1.958255291E0,2.218551679E0
4.676846088E0,-1.174970508E0,-9.756445885E-2,-1.400473595E0,1.830683153E0
4.693839335E0,-1.251195788E0,-2.489974499E-1,-5.886974335E-1,1.405010783E0
4.710832143E0,-1.304107308E0,-3.990033865E-1,1.147699356E-1,1.368602102E0
4.727828746E0,-1.346955180E0,-4.644224644E-1,4.455633163E-1,1.492817186E0
4.744793550E0,-1.315366983E0,-4.934233427E-1,4.942207336E-1,1.489265265E0
4.761799877E0,-1.131590843E0,-5.361225605E-1,6.036357880E-1,1.390072444E0
4.778805757E0,-9.538964033E-1,-5.957078934E-1,8.125295639E-1,1.387440281E0
4.795778374E0,-8.927727342E-1,-6.642985344E-1,1.067473412E0,1.542023081E0
4.812799990E0,-1.187080026E0,-4.465448856E-1,1.039730072E0,1.639999983E0
4.829777834E0,-1.482425332E0,-1.396040916E-1,6.653814316E-1,1.630891357E0
4.846804619E0,-1.220498323E0,5.267429352E-2,3.346433640E-1,1.266640012E0
4.863775364E0,-5.562478304E-1,4.452133179E-2,5.328063965E-1,7.715416087E-1
4.880775781E0,-2.618945837E-1,-2.205064297E-1,1.244581223E0,1.290811480E0
4.897766443E0,-3.791635036E-1,-7.112884521E-1,1.867466927E0,2.033993350E0
4.914759405E0,-9.219288230E-1,-1.089180350E0,2.095108986E0,2.534905965E0
4.931753871E0,-1.610962629E0,-1.140839338E0,1.508207321E0,2.484231131E0
4.948722774E0,-1.815570831E0,-9.970959425E-1,4.382610321E-1,2.117208184E0
4.965738624E0,-1.868204355E0,-6.954746246E-1,-2.825279236E-1,2.013378875E0
4.982728207E0,-1.761727095E0,-5.056352615E-1,-5.334110260E-1,1.908894103E0
4.999729885E0,-1.456302881E0,-5.472244024E-1,-2.795410156E-1,1.580637785E0
5.016720466E0,-1.059340477E0,-7.594544888E-1,1.032180786E-1,1.307527185E0
5.033714018E0,-7.612580061E-1,-1.014528513E0,3.648424149E-1,1.319807502E0
5.050697671E0,-5.689048767E-1,-1.242834210E0,6.887092590E-1,1.530558747E0
5.067692310E0,-4.949963689E-1,-1.391350865E0,1.063607216E0,1.819928280E0
5.084676228E0,-5.753192902E-1,-1.430079699E0,1.165970802E0,1.932772139E0
5.101676127E0,-5.935602784E-1,-1.343613625E0,7.806348801E-1,1.663430850E0
5.118677012E0,-5.774260759E-1,-1.183522701E0,8.920574188E-2,1.319888072E0
5.135680380E0,-4.738857746E-1,-9.608944654E-1,-5.806198120E-1,1.218607922E0
5.152674745E0,-4.537147880E-1,-7.675366402E-1,-1.207338333E0,1.500878227E0
5.169690868E0,-5.078400373E-1,-6.372666359E-1,-1.642949104E0,1.833928032E0
5.186661287E0,-7.147160172E-1,-5.763945580E-1,-1.680549622E0,1.915018721E0
5.203652966E0,-8.529441357E-1,-6.038558483E-1,-1.273523331E0,1.647427467E0
5.220653801E0,-8.355045319E-1,-7.059483528E-1,-7.177209854E-1,1.308263854E0
5.237636956E0,-7.518866658E-1,-7.843835354E-1,-2.790193558E-1,1.121803410E0
5.254643792E0,-6.608842611E-1,-8.197207451E-1,4.710769653E-2,1.054006282E0
5.271619053E0,-5.585920811E-1,-8.207225800E-1,2.273807526E-1,1.018485480E0
5.288622501E0,-5.915929079E-1,-7.780287266E-1,3.025236130E-1,1.023147792E0
5.305620540E0,-6.993193626E-1,-6.463823318E-1,2.777814865E-1,9.919779454E-1
5.322600510E0,-8.619709015E-1,-4.804368019E-1,2.834796906E-2,9.872269055E-1
5.339606908E0,-5.957393646E-1,-5.108036995E-1,-1.122159958E-1,7.927283518E-1
5.356601344E0,-3.860342503E-2,-8.127536774E-1,6.863927841E-1,1.064515767E0
5.373602729E0,2.010866404E-1,-1.274419427E0,1.888926506E0,2.287492963E0
5.458564217E0,-1.548179150E0,-5.444858074E-1,-1.105968475E0,1.979012315E0
5.475565713E0,-1.257863641E0,-4.043157101E-1,-1.354633331E0,1.892279999E0
5.492545602E0,-1.025722861E0,-4.920208454E-1,-6.369438171E-1,1.303798039E0
5.509545603E0,-7.796152234E-1,-6.667450666E-1,4.883718491E-1,1.136158415E0
5.526526722E0,-5.635854006E-1,-8.388741016E-1,1.664534569E0,1.947309321E0
5.543520671E0,-5.817447901E-1,-8.232539892E-1,2.184628487E0,2.405987480E0
5.560514619E0,-8.779140711E-1,-7.462517023E-1,1.604770660E0,1.975579305E0
5.577505728E0,-1.002329111E0,-6.338602304E-1,6.066160202E-1,1.332075611E0
5.594504610E0,-9.413447380E-1,-5.782934427E-1,-1.252527237E-1,1.111863960E0
5.611490989E0,-9.399622679E-1,-6.148418188E-1,-5.941486359E-1,1.270658148E0
5.628503420E0,-1.072225213E0,-7.094863653E-1,-7.303562164E-1,1.478667648E0
5.645465091E0,-1.206669688E0,-7.909576893E-1,-5.561723709E-1,1.546283774E0
5.662471154E0,-1.260529041E0,-9.279960394E-1,-1.885128021E-1,1.576593540E0
5.679497155E0,-1.205628395E0,-1.015284181E0,1.378593445E-1,1.582196888E0
5.696465612E0,-1.245146036E0,-1.040746689E0,1.840829849E-1,1.633226520E0
5.713459141E0,-1.371572137E0,-1.103413224E0,1.402158737E-1,1.765896758E0
5.730466395E0,-1.335543394E0,-1.275446653E0,2.408275604E-1,1.862374355E0
5.747483750E0,-1.173877120E0,-1.510553479E0,6.357164383E-1,2.015910389E0
5.764454474E0,-1.065901875E0,-1.735053062E0,1.122955322E0,2.325421380E0
5.781435197E0,-1.197392464E0,-1.884458065E0,1.280784607E0,2.573973605E0
5.798425614E0,-1.352751970E0,-1.994118452E0,1.097846985E0,2.647964180E0
5.815433978E0,-1.049116850E0,-2.264699459E0,1.367733002E0,2.846085622E0
5.832433164E0,-6.672446132E-1,-2.451234102E0,2.043833733E0,3.260524547E0
5.849402127E0,-9.296678305E-1,-2.511880875E0,2.026246071E0,3.358496828E0
5.866414509E0,-1.502574205E0,-2.292032957E0,1.141324997E0,2.968798927E0
5.883410948E0,-1.559993267E0,-2.000680208E0,3.149051666E-1,2.556455662E0
5.900392699E0,-1.342095852E0,-1.776517272E0,1.721916199E-1,2.233133415E0
5.917393828E0,-9.262984395E-1,-1.896259546E0,7.507505417E-1,2.239967732E0
5.934397695E0,-7.639034390E-1,-2.050002813E0,1.363008499E0,2.577567102E0
5.951386506E0,-9.171904325E-1,-2.133951187E0,1.404263496E0,2.714211106E0
5.968364452E0,-1.114707351E0,-2.063188553E0,1.136178017E0,2.605805052E0
5.985377413E0,-1.064452171E0,-1.930940509E0,9.604759216E-1,2.405016355E0
6.002354076E0,-7.063552737E-1,-1.934638858E0,9.728641510E-1,2.277768632E0
6.019349031E0,-4.382650852E-1,-1.934226036E0,1.073826790E0,2.255307211E0
6.036343265E0,-4.051681757E-1,-1.919342756E0,8.828401566E-1,2.151149602E0
6.053336581E0,-4.888802767E-1,-1.853050709E0,4.607973099E-1,1.971074584E0
6.070330743E0,-5.445834398E-1,-1.803082228E0,1.244201660E-1,1.887632650E0
6.087324609E0,-4.543434978E-1,-1.662327170E0,-4.189300537E-2,1.723808185E0
6.104322077E0,-2.867342234E-1,-1.565150380E0,-1.736974716E-1,1.600650817E0
6.121325800E0,-2.390686870E-1,-1.425993681E0,-3.865633011E-1,1.496677320E0
6.138316553E0,-2.766945362E-1,-1.260321140E0,-7.063865662E-1,1.471037465E0
6.155304063E0,-3.064699173E-1,-1.096847296E0,-9.486236572E-1,1.482189139E0
6.172304684E0,-2.290291786E-1,-9.602887630E-1,-1.048995018E0,1.440485828E0
6.189303513E0,-2.436158657E-1,-8.573923111E-1,-1.127035141E0,1.436898909E0
6.206295255E0,-2.704231739E-1,-8.117878437E-1,-8.192911148E-1,1.184637551E0
6.223291643E0,-2.309463024E-1,-7.956357002E-1,-3.803548813E-1,9.116151588E-1
6.240280321E0,-3.266794682E-1,-7.235772610E-1,-5.138206482E-2,7.955649842E-1
6.257255226E0,-5.788136721E-1,-5.768799782E-1,-1.719093323E-2,8.173807585E-1
6.274268116E0,-7.302430272E-1,-4.594745636E-1,-3.000898361E-1,9.134690269E-1
6.291264200E0,-5.867899060E-1,-5.548095703E-1,-4.634780884E-1,9.311004197E-1
6.308259459E0,-1.556303501E-1,-9.069964886E-1,-8.334445953E-2,9.240182547E-1
6.325256724E0,2.940309048E-2,-1.345772862E0,8.580341339E-1,1.596305646E0
6.342237009E0,-4.449033737E-1,-1.700274706E0,1.478340149E0,2.296598067E0
6.359215332E0,-1.388173461E0,-1.732141972E0,1.401180267E0,2.625004287E0
6.376223838E0,-1.931519032E0,-1.571968913E0,4.918298721E-1,2.538453989E0
6.393214194E0,-2.180828094E0,-1.158712745E0,-1.705265045E-2,2.469598590E0
6.410208304E0,-2.149171829E0,-7.753387690E-1,-3.837747574E-1,2.316759121E0
6.427202262E0,-1.840517282E0,-6.119718552E-1,-5.224084854E-1,2.008712036E0
6.444196424E0,-1.418322682E0,-7.158454657E-1,1.283760071E-1,1.593911654E0
6.461203830E0,-1.128167629E0,-8.441858292E-1,1.053648949E0,1.759428322E0
6.478219465E0,-8.388547897E-1,-8.750633001E-1,1.966265678E0,2.309894772E0
6.495189264E0,-6.243587732E-1,-7.475951910E-1,2.333350182E0,2.528486804E0
6.512169458E0,-5.122596025E-1,-6.192227602E-1,1.862523079E0,2.028506580E0
6.529167750E0,-4.411236048E-1,-4.196709394E-1,8.503465652E-1,1.045850378E0
6.546148565E0,-3.997170925E-1,-2.150238752E-1,-9.899902344E-2,4.645533636E-1
6.563154190E0,-3.519638777E-1,-3.912138939E-2,-6.882467270E-1,7.740107309E-1
6.580147396E0,-2.618746758E-1,3.268861771E-2,-9.022789001E-1,9.400819673E-1
6.597151984E0,-3.579214811E-1,7.189583778E-2,-8.449888229E-1,9.204797168E-1
6.614152748E0,-4.473431110E-1,8.049011230E-3,-6.781663895E-1,8.124594128E-1
6.631141935E0,-4.039102793E-1,-1.169297695E-1,-3.913106918E-1,5.744041628E-1
6.648136115E0,-4.225757122E-1,-2.453392744E-1,4.283332825E-2,4.905061530E-1
6.665123899E0,-5.839492083E-1,-4.010742903E-1,4.664449692E-1,8.481911185E-1
6.682129667E0,-7.153252363E-1,-5.721142292E-1,8.578929901E-1,1.254984170E0
6.699087319E0,-7.737057805E-1,-7.528181076E-1,1.177420616E0,1.597396333E0
6.716091868E0,-9.413662553E-1,-7.670413256E-1,1.128871918E0,1.657973048E0
6.733105001E0,-1.024633646E0,-6.097102165E-1,6.686773300E-1,1.367022322E0
6.750120016E0,-4.826998115E-1,-6.794469357E-1,6.883773804E-1,1.080976718E0
6.767093496E0,3.122204542E-1,-9.013800621E-1,1.589184761E0,1.853503664E0
6.784087393E0,1.567361355E-1,-1.039905548E0,1.766373634E0,2.055734803E0
6.801067822E0,-4.853030443E-1,-1.005344748E0,9.064741135E-1,1.438030746E0
6.818068096E0,-6.605073810E-1,-8.212337494E-1,1.363620758E-1,1.062680332E0
6.835075381E0,-2.840467691E-1,-6.087031364E-1,-1.093635559E-1,6.805604034E-1
6.852062401E0,2.187941074E-1,-6.029556990E-1,1.590938568E-1,6.608610229E-1
6.869055972E0,2.501386404E-1,-7.309999466E-1,3.656263351E-1,8.547589592E-1
6.886041304E0,1.069799066E-1,-8.593453169E-1,3.183307648E-1,9.226340281E-1
6.903050195E0,6.125247478E-2,-9.259281158E-1,2.723484039E-1,9.670927538E-1
6.920029087E0,1.016200185E-1,-9.390177727E-1,2.845659256E-1,9.864374139E-1
6.937006617E0,1.684490442E-1,-8.884953260E-1,2.023620605E-1,9.266873413E-1
6.954022548E0,1.931784153E-1,-7.382740974E-1,-2.283000946E-1,7.965472216E-1
6.971031764E0,3.031698465E-1,-5.476016998E-1,-7.903709412E-1,1.008199287E0
6.988005336E0,4.115660489E-1,-3.243079185E-1,-1.385709763E0,1.481470143E0
7.004994025E0,4.610057771E-1,-1.553010941E-1,-1.837598801E0,1.900898237E0
7.021988237E0,4.452247024E-1,1.017570496E-2,-2.219993114E0,2.264221281E0
7.038981940E0,4.548144937E-1,1.687121391E-1,-2.253506660E0,2.305127389E0
7.055976103E0,6.165447831E-1,2.408576012E-1,-2.008300304E0,2.114570870E0
7.072969541E0,7.947276831E-1,3.309516907E-1,-1.588843822E0,1.807082124E0
7.089987690E0,9.522929788E-1,3.039162159E-1,-1.109834671E0,1.493639843E0
7.106942910E0,1.047328472E0,3.492302895E-1,-7.022867203E-1,1.308459155E0
7.123968424E0,1.244716644E0,2.842583656E-1,-4.035415649E-1,1.339017602E0
7.140946074E0,1.280034304E0,1.658759117E-1,2.724456787E-2,1.291024749E0
7.157939199E0,1.109585762E0,7.433843613E-2,3.272800446E-1,1.159232071E0
7.174941417E0,9.071530104E-1,5.099868774E-2,2.608680725E-1,9.452933945E-1
7.191943351E0,9.332216382E-1,7.757425308E-3,-1.443490982E-1,9.443513466E-1
7.208934205E0,1.133244991E0,-1.354615688E-1,-1.750679016E-1,1.154661343E0
7.225927238E0,1.273135185E0,-4.383853674E-1,2.393045425E-1,1.367597015E0
7.242923017E0,1.064482570E0,-8.088791370E-1,9.940977097E-1,1.666024867E0
7.259915835E0,5.900591016E-1,-1.101357341E0,1.716424942E0,2.123033753E0
7.276909467E0,2.680802345E-1,-1.201785088E0,2.178746223E0,2.502616534E0
7.293903578E0,-5.472835898E-2,-1.032157660E0,2.179200172E0,2.411899256E0
7.310897109E0,-2.393010110E-1,-8.787616491E-1,1.935109138E0,2.138722607E0
7.327899580E0,-3.490605950E-1,-7.508372664E-1,1.374260902E0,1.604429159E0
7.344884211E0,-2.931309640E-1,-6.949560046E-1,9.529619217E-1,1.215329599E0
7.361866094E0,1.389473081E-1,-6.447145343E-1,9.887828827E-1,1.188551545E0
7.378856400E0,5.655854344E-1,-5.566155910E-1,1.378650665E0,1.590718535E0
7.395867753E0,5.863537788E-1,-2.871809006E-1,1.502980232E0,1.638668118E0
7.412849850E0,5.653482676E-1,1.390194893E-1,1.158901215E0,1.296918312E0
7.429839331E0,9.748358727E-1,4.799351692E-1,5.814981461E-1,1.232389078E0
7.446848314E0,1.384253025E0,7.052180767E-1,-8.997440338E-2,1.556144070E0
7.463842832E0,1.604248405E0,8.569264412E-1,-8.201684952E-1,1.995147170E0
7.480831938E0,1.720363021E0,1.007631183E0,-1.426814079E0,2.451686754E0
7.497816984E0,1.920004845E0,1.077338576E0,-1.956841946E0,2.945557233E0
7.514811329E0,2.025224686E0,1.054483891E0,-2.081669331E0,3.089792631E0
7.531804860E0,2.061869860E0,9.048752785E-1,-1.796401978E0,2.880480282E0
7.548778401E0,2.000580311E0,7.102515697E-1,-1.152932167E0,2.415787957E0
7.565790701E0,1.841607809E0,4.829857349E-1,-4.113063812E-1,1.947810946E0
7.582791576E0,1.585389853E0,2.920531034E-1,2.386007309E-1,1.629627659E0
7.599777446E0,1.239026785E0,1.749163866E-1,5.664339066E-1,1.373546682E0
7.616774395E0,9.951647520E-1,1.338376999E-1,5.668449402E-1,1.153073545E0
7.633768455E0,9.147759676E-1,1.370494366E-1,3.405294418E-1,9.856763768E-1
7.650762392E0,7.694876194E-1,2.215132713E-1,-7.285118103E-3,8.007698788E-1
7.667754326E0,5.569323301E-1,3.082780838E-1,-1.921539307E-1,6.649301695E-1
7.684740126E0,4.121978581E-1,3.581092358E-1,-2.434606552E-1,5.978481326E-1
7.701733697E0,3.640997708E-1,4.613928795E-1,-5.605983734E-2,5.904191204E-1
7.718728529E0,2.653852701E-1,6.145186424E-1,4.046821594E-2,6.705968834E-1
7.735721755E0,3.230252862E-1,8.255789280E-1,8.587551117E-2,8.906741858E-1
7.752720820E0,1.049814701E0,7.789428234E-1,1.440668106E-1,1.315149450E0
7.769709590E0,1.951434970E0,3.368413448E-1,1.187624931E0,2.309115309E0
7.786707474E0,2.232190847E0,-4.055882692E-1,2.798558235E0,3.602652636E0
7.803699866E0,1.802022338E0,-9.211322069E-1,3.831128120E0,4.332817989E0
7.820690589E0,1.047096729E0,-1.005359888E0,3.409990311E0,3.706102263E0
7.837684882E0,7.488172054E-1,-6.727552414E-1,1.711714745E0,1.985772945E0
7.854679329E0,7.181589603E-1,-2.522156239E-1,8.688926697E-3,7.612098992E-1
7.871672483E0,6.246214509E-1,2.003080845E-1,-1.524631500E0,1.659751938E0
7.888678851E0,4.597858787E-1,3.590340614E-1,-2.301223755E0,2.374013328E0
7.905670643E0,4.778475761E-1,2.569909096E-1,-2.345860481E0,2.407788203E0
7.922664061E0,7.348942161E-1,-4.048514366E-2,-1.699943066E0,1.852434879E0
7.939658050E0,7.956742048E-1,-3.749353886E-1,-1.118640900E0,1.423035997E0
7.956651773E0,5.138573050E-1,-6.800558567E-1,-6.739377975E-1,1.086608234E0
7.973645366E0,2.290105820E-2,-8.985531330E-1,-2.440538406E-1,9.313884627E-1
7.990635672E0,-3.895699382E-1,-9.976458549E-1,-2.565002441E-2,1.071316906E0
8.007633942E0,-7.270562649E-1,-9.642060995E-1,-3.042821884E-1,1.245348090E0
8.024627097E0,-1.017599940E0,-8.162982464E-1,-1.054974556E0,1.677743657E0
8.041617016E0,-1.193658590E0,-6.744542122E-1,-1.842280388E0,2.296455169E0
8.058617657E0,-1.352340698E0,-4.897713661E-1,-2.378200531E0,2.779305511E0
8.075622846E0,-1.429033756E0,-3.495085239E-1,-2.294406891E0,2.725545205E0
8.092615329E0,-1.433196783E0,-3.049607277E-1,-1.815241814E0,2.332843095E0
8.109609786E0,-1.240508080E0,-2.637436390E-1,-1.093027115E0,1.674254842E0
8.126603702E0,-9.395039082E-1,-2.506186962E-1,-4.114713669E-1,1.055834272E0
8.143598037E0,-7.096477747E-1,-2.223012447E-1,7.523727417E-2,7.474479614E-1
8.160591253E0,-6.197510362E-1,-2.231087685E-1,4.199924469E-1,7.811930138E-1
8.177582300E0,-4.919323325E-1,-2.171897888E-1,7.481822968E-1,9.213824251E-1
8.194582576E0,-3.391433358E-1,-5.844235420E-2,1.051693916E0,1.106568482E0
8.211576931E0,-3.031873703E-1,1.741368771E-1,9.316215515E-1,9.950703235E-1
8.228560644E0,-1.514564753E-1,3.331432343E-1,6.125755310E-1,7.135630733E-1
8.245540972E0,4.269458055E-1,1.259634495E-1,1.062586784E0,1.152059107E0
8.262543271E0,8.736623526E-1,-3.770911694E-1,2.512554169E0,2.686710276E0
8.279545703E0,1.132030606E0,-9.769469500E-1,3.774036407E0,4.059466645E0
8.296532946E0,7.103404999E-1,-1.297444701E0,4.103180885E0,4.361655621E0
8.313556731E0,-3.708685637E-1,-1.090358973E0,3.145682335E0,3.349887093E0
8.330531808E0,-1.002322197E0,-8.377407789E-1,1.215413094E0,1.784289323E0
8.347522643E0,-1.112217426E0,-5.095092058E-1,-1.772623062E-1,1.236142856E0
8.364518616E0,-8.814554214E-1,-2.348525524E-1,-9.091186523E-1,1.287872705E0
8.381502859E0,-3.943554163E-1,-1.954169273E-1,-1.216408730E0,1.293581914E0
8.398502095E0,-2.110882998E-1,-2.033469677E-1,-1.117482185E0,1.155281219E0
8.415503013E0,-7.753229141E-2,-1.997137070E-1,-9.629802704E-1,9.865230976E-1
8.432467897E0,7.276618481E-2,-1.107296944E-1,-8.078718185E-1,8.186652906E-1
8.449484489E0,-4.079043865E-2,-1.795387268E-2,-7.196941376E-1,7.210727100E-1
8.466481315E0,-5.008167028E-1,1.299858093E-1,-6.633300781E-1,8.412612395E-1
8.483462415E0,-9.816415310E-1,3.310894966E-1,-9.230794907E-1,1.387557601E0
8.500455682E0,-1.286614060E0,5.284743309E-1,-1.226532936E0,1.854465934E0
8.517447299E0,-1.400218844E0,7.013914585E-1,-1.396341324E0,2.098173464E0
8.534446395E0,-1.468626976E0,6.993007660E-1,-1.494983196E0,2.209267189E0
8.551438023E0,-1.464313507E0,5.076186657E-1,-1.388209820E0,2.080629054E0
8.568434544E0,-1.514613509E0,4.379122257E-1,-9.111499786E-1,1.820992994E0
8.585438960E0,-1.484197021E0,4.499552250E-1,-5.159111023E-1,1.634461613E0
8.602435176E0,-1.409040093E0,5.025699139E-1,-4.403505325E-1,1.559448330E0
8.619444555E0,-1.386911035E0,6.316461563E-1,-3.796634674E-1,1.570555135E0
8.636421414E0,-1.296436429E0,5.892961025E-1,-2.018384933E-1,1.438317103E0
8.653414069E0,-1.163392782E0,5.066015720E-1,3.319377899E-1,1.311606120E0
8.670394894E0,-1.305989981E0,5.481345654E-1,1.121549606E0,1.806636336E0
8.687402351E0,-1.530933738E0,7.147252560E-1,1.923992157E0,2.560534343E0
8.704395384E0,-8.490807414E-1,7.067220211E-1,2.381386757E0,2.625147045E0
8.721376901E0,-2.315490246E-1,3.219485283E-1,3.131148338E0,3.156161549E0
8.738386392E0,-1.322656870E-1,-9.492444992E-2,3.920955658E0,3.924334101E0
8.755375051E0,-4.468886256E-1,-5.080875158E-1,3.764242172E0,3.824575989E0
8.772370788E0,-1.066282272E0,-6.139700413E-1,2.547550201E0,2.829121617E0
8.789365174E0,-1.530420065E0,-5.249804258E-1,6.953821182E-1,1.761063972E0
8.806359752E0,-1.860917211E0,-3.636975288E-1,-7.414655685E-1,2.035942029E0
8.823349916E0,-1.915106297E0,-1.342303753E-1,-1.461507320E0,2.412810305E0
8.840352581E0,-1.755421877E0,1.201868057E-3,-1.398910999E0,2.244651286E0
8.857337688E0,-1.316863298E0,2.384233475E-2,-9.837617874E-1,1.643923556E0
8.874337619E0,-8.125275373E-1,-2.927792072E-1,-3.979835510E-1,9.509529799E-1
8.891315606E0,-5.747812986E-1,-5.659992695E-1,4.795646667E-2,8.081018110E-1
8.908319583E0,-6.387174129E-1,-8.798757792E-1,3.182392120E-1,1.132880186E0
8.925319655E0,-9.144470692E-1,-1.060787678E0,4.255790710E-1,1.463762783E0
8.942298384E0,-1.143862247E0,-1.134989381E0,1.355791092E-1,1.617097224E0
8.959301182E0,-1.104707956E0,-1.058565974E0,-4.362306595E-1,1.590986731E0
8.976284531E0,-9.850646257E-1,-9.263662100E-1,-1.005928993E0,1.685348573E0
8.993278661E0,-8.712262511E-1,-8.021578789E-1,-1.523509026E0,1.929655978E0
9.010272639E0,-8.485540152E-1,-7.281937599E-1,-1.966598034E0,2.262259467E0
9.027266760E0,-7.747451067E-1,-7.095289230E-1,-1.963462830E0,2.226846999E0
9.044260047E0,-5.742941499E-1,-7.392263412E-1,-1.501542568E0,1.769434779E0
9.061262774E0,-2.387753725E-1,-8.639709949E-1,-8.802804947E-1,1.256325319E0
9.078257067E0,9.011363983E-2,-9.242610931E-1,-2.961826324E-1,9.747323674E-1
9.095259661E0,3.869575262E-1,-9.275274277E-1,-1.176834106E-1,1.011875803E0
9.112233783E0,4.505943060E-1,-8.729074001E-1,-1.009864807E-1,9.875225704E-1
9.129239805E0,3.996502161E-1,-7.149510384E-1,-2.757129669E-1,8.642296701E-1
9.146226796E0,1.653505564E-1,-3.547987938E-1,-4.572324753E-1,6.019007618E-1
9.163227457E0,1.080405712E-2,-3.991556168E-2,-8.422994614E-1,8.433139168E-1
9.180216909E0,3.601183891E-1,-8.066606522E-2,-7.507562637E-1,8.365567738E-1
9.197223002E0,8.961366415E-1,-4.760756493E-1,4.547548294E-1,1.111985098E0
9.214215608E0,8.336751461E-1,-9.634261131E-1,2.171201706E0,2.517403617E0
9.231206290E0,-1.223878860E-1,-1.397226691E0,3.391469002E0,3.670052208E0
9.248200268E0,-1.651356459E0,-1.067385435E0,3.030129433E0,3.612197973E0
9.265193880E0,-2.199346304E0,-5.636010170E-1,1.514647484E0,2.729272297E0
9.282187960E0,-1.906171322E0,6.435370445E-2,4.984092712E-2,1.907908443E0
9.299178743E0,-1.175478935E0,4.342107773E-1,-7.920074463E-1,1.482418808E0
9.316178684E0,-5.964100361E-1,3.993101120E-1,-7.871465683E-1,1.065247960E0
9.333157037E0,-3.337601423E-1,2.034902573E-1,-9.617233276E-2,4.025583622E-1
9.350160201E0,-2.273154259E-2,3.617238998E-2,8.416309357E-1,8.427145405E-1
9.367160679E0,3.839744329E-1,-1.612492800E-1,1.826264381E0,1.873146894E0
9.384138504E0,5.018091202E-1,-2.562031746E-1,1.975119591E0,2.053910869E0
9.401115168E0,1.153525114E-1,-2.130351067E-1,1.146754265E0,1.172064632E0
9.418136063E0,-2.716749907E-1,-1.162049770E-1,7.850837708E-2,3.057359359E-1
9.435136328E0,-4.978538752E-1,-6.633734703E-2,-6.167402267E-1,7.953789235E-1
9.452123379E0,-6.226083040E-1,-1.001260281E-1,-1.031581879E0,1.209060583E0
9.469107489E0,-6.099563837E-1,-1.433563232E-1,-1.295183182E0,1.438783271E0
9.486098966E0,-6.087043285E-1,-2.439208031E-1,-1.440936089E0,1.583134590E0
9.503098264E0,-4.200392365E-1,-2.553014755E-1,-1.384397507E0,1.469070543E0
9.520078927E0,-3.727162480E-1,-2.435219288E-1,-1.161827087E0,1.244211603E0
9.537070595E0,-5.703496337E-1,-1.484944820E-1,-9.398355484E-1,1.109342226E0
9.554086537E0,-6.847903728E-1,-9.790182114E-2,-9.460420609E-1,1.171971929E0
9.571084146E0,-7.078740597E-1,-6.780266762E-2,-1.042997360E0,1.262349547E0
9.588077870E0,-6.475791931E-1,-1.915912628E-1,-7.901439667E-1,1.039419796E0
9.605066509E0,-7.403221130E-1,-2.561578751E-1,-1.788196564E-1,8.035360337E-1
9.622065593E0,-1.193923950E0,-2.268540859E-1,4.318294525E-1,1.289726270E0
9.639059947E0,-1.775200248E0,1.367068291E-1,1.071308136E0,2.077913809E0
9.656053153E0,-1.689693451E0,4.738073349E-1,1.613770485E0,2.384074774E0
9.673041119E0,-7.787642479E-1,4.198908806E-1,2.304332733E0,2.468345894E0
9.690041719E0,-1.934180558E-1,-2.065241337E-2,3.466294289E0,3.471747854E0
9.707030347E0,-4.976190329E-1,-3.311830759E-1,4.043292999E0,4.087239314E0
9.724033624E0,-1.329505444E0,-2.294483185E-1,3.321838379E0,3.585364901E0
9.741022942E0,-1.627123475E0,-2.782511711E-2,1.709663391E0,2.360350387E0
9.758013523E0,-1.274630070E0,1.627399921E-1,6.239480972E-1,1.428452781E0
9.775001215E0,-5.703743100E-1,1.821833849E-1,3.278732300E-1,6.826554725E-1
9.859979692E0,2.071099877E-1,-7.705202103E-1,1.021659851E0,1.296296568E0
9.876973813E0,1.355764866E-1,-6.626650095E-1,6.820993423E-1,9.606067933E-1
9.893967975E0,2.008880973E-1,-5.227421522E-1,1.301279068E-1,5.749336114E-1
9.910959755E0,3.753614426E-1,-3.908932209E-1,-4.760141373E-1,7.213065795E-1
9.927957528E0,4.866713285E-1,-2.358677387E-1,-1.121170998E0,1.244791942E0
9.944942890E0,5.364401340E-1,-1.564142704E-1,-1.704379082E0,1.793639177E0
9.961930500E0,6.601834893E-1,-1.224370003E-1,-1.908806801E0,2.023456563E0
9.978924326E0,9.700089097E-1,4.192590714E-3,-1.677831173E0,1.938053742E0
9.995917847E0,1.380017042E0,2.787613869E-2,-1.302412987E0,1.897762815E0
1.001291206E1,1.930336475E0,-1.274275780E-2,-6.280832291E-1,2.029987642E0
1.002990597E1,2.301770210E0,-1.530983448E-1,1.679430008E-1,2.312961317E0
1.004690330E1,2.445337772E0,-3.577065468E-1,4.567480087E-1,2.513214980E0
1.006390688E1,2.331752777E0,-5.825741291E-1,4.302339554E-1,2.441631603E0
1.008090056E1,2.114074707E0,-7.990210056E-1,3.077020645E-1,2.280882942E0
1.009789503E1,1.935942888E0,-9.770812988E-1,3.138475418E-1,2.191132814E0
1.011488487E1,1.869984031E0,-1.064092398E0,4.300460815E-1,2.194099482E0
1.013187326E1,1.636265039E0,-1.028012037E0,2.096195221E-1,1.943736703E0
1.014887957E1,1.251889825E0,-9.374308586E-1,-5.533380508E-1,1.658971895E0
1.016586066E1,9.324147105E-1,-7.342662811E-1,-1.252391338E0,1.725406685E0
1.018289255E1,9.246864319E-1,-5.847139359E-1,-1.317209244E0,1.712301252E0
1.019985805E1,1.351204038E0,-7.941033840E-1,-5.217380524E-1,1.651836291E0
1.021685178E1,1.669934034E0,-9.785580635E-1,8.965644836E-1,2.133092458E0
1.030180863E1,1.479089975E0,-4.799134731E-1,-4.065227509E-1,1.607260042E0
1.031881196E1,1.713568568E0,-5.223543644E-1,-6.437883377E-1,1.903584709E0
1.033579944E1,1.794165492E0,-5.768527985E-1,-4.637765884E-1,1.940844581E0
1.035280289E1,1.759900570E0,-7.310762405E-1,-9.427833557E-2,1.908038493E0
1.036978363E1,1.478631139E0,-7.853262424E-1,2.112226486E-1,1.687513662E0
1.038678752E1,1.065861225E0,-6.986186504E-1,3.149938583E-1,1.312763993E0
1.040378738E1,6.256477833E-1,-5.166616440E-1,1.315774918E-1,8.220018488E-1
1.042078649E1,2.559504211E-1,-3.419415951E-1,-3.654441833E-1,5.621246513E-1
1.043776935E1,-4.160414934E-1,-9.140563011E-2,-6.426362991E-1,7.709908731E-1
1.045475206E1,-1.050326586E0,-2.679777145E-2,-7.835578918E-1,1.310674264E0
1.047174668E1,-1.388943553E0,1.978993416E-2,-1.127334118E0,1.788976816E0
1.048874093E1,-1.207468510E0,1.479468346E-1,-1.509528637E0,1.938696772E0
1.050573482E1,-5.764272213E-1,2.458801270E-1,-1.790310860E0,1.896823226E0
1.052272894E1,-2.336972952E-2,3.671121597E-1,-1.543299198E0,1.586533926E0
1.053972975E1,2.647187114E-1,3.773860931E-1,-8.810710907E-1,9.943754453E-1
1.055673261E1,4.844584465E-1,2.164559364E-1,-2.401142120E-1,5.824156537E-1
1.057372341E1,6.086935401E-1,-1.959092617E-1,-5.752849579E-2,6.420263175E-1
1.059070292E1,3.125900626E-1,-5.858843327E-1,4.367208481E-1,7.947943744E-1
1.060771255E1,-1.346620321E-1,-8.067829609E-1,1.272838593E0,1.512993950E0
1.062469986E1,-2.354030609E-1,-1.252255440E0,1.526680946E0,1.988545448E0
1.064169845E1,-3.194332123E-2,-1.403997183E0,1.917290688E0,2.376600944E0
1.065871667E1,6.432856321E-1,-1.691645145E0,2.556558609E0,3.132326871E0
1.067568449E1,8.047861457E-1,-2.029908657E0,2.652459145E0,3.435658512E0
1.069268311E1,3.944591284E-1,-2.135756016E0,2.476753235E0,3.294140001E0
1.070966148E1,9.867072105E-2,-2.188062668E0,1.815485001E0,2.844879600E0
1.072666891E1,3.564096689E-1,-2.182204723E0,9.449691772E-1,2.404581471E0
1.074366564E1,9.049324393E-1,-2.234801292E0,2.907829285E-1,2.428537471E0
1.076065277E1,1.251814365E0,-2.320766926E0,-1.044540405E-1,2.638921934E0
1.077766534E1,1.275654316E0,-2.375450611E0,-1.045026779E-1,2.698329177E0
1.079464023E1,1.537096620E0,-2.453028202E0,2.290334702E-1,2.903871503E0
1.081164494E1,2.016384125E0,-2.467084408E0,4.562454224E-1,3.218768444E0
1.082860955E1,2.458934069E0,-2.353591442E0,5.896577835E-1,3.454481977E0
1.084562700E1,2.714265347E0,-2.313233376E0,4.572229385E-1,3.595460727E0
1.086260635E1,2.477151871E0,-2.088723183E0,1.599149704E-1,3.244166876E0
1.087959641E1,2.300572634E0,-1.940683603E0,-2.052536011E-1,3.016789076E0
1.089660696E1,2.083372593E0,-1.752616167E0,-7.544031143E-1,2.825106874E0
1.091359180E1,1.933184862E0,-1.643326759E0,-1.240018368E0,2.824070130E0
1.093059183E1,1.730565906E0,-1.501543522E0,-1.523243904E0,2.751320282E0
1.094757582E1,1.485728264E0,-1.360631466E0,-1.642126083E0,2.599093021E0
1.096457007E1,1.380457878E0,-1.239407301E0,-1.747722626E0,2.548789671E0
1.098154692E1,1.607143879E0,-1.067282915E0,-1.852135658E0,2.674399141E0
1.099854845E1,1.977870226E0,-9.543519020E-1,-1.658306599E0,2.751860999E0
1.101555049E1,2.198924541E0,-8.626923561E-1,-1.495166302E0,2.795537428E0
1.103254684E1,2.206518173E0,-7.741229534E-1,-1.511106968E0,2.784139555E0
1.104955244E1,2.080531120E0,-7.281546593E-1,-1.640015125E0,2.747447645E0
1.106655021E1,1.844774246E0,-6.848821640E-1,-1.616156578E0,2.546412709E0
1.108353956E1,1.842140436E0,-6.468594074E-1,-1.211061478E0,2.297515698E0
1.110053393E1,1.970117331E0,-7.108442783E-1,-7.823381424E-1,2.235780591E0
1.111752496E1,2.069722652E0,-8.294231892E-1,-5.307321548E-1,2.292023408E0
1.113451949E1,1.810072303E0,-9.672455788E-1,-2.306051254E-1,2.065212937E0
1.115151493E1,1.272027731E0,-9.981281757E-1,-1.172962189E-1,1.621133186E0
1.116849526E1,1.091649652E0,-7.741912603E-1,-5.474090576E-4,1.338309145E0
1.118549125E1,1.480161190E0,-5.828502178E-1,-2.456054688E-1,1.609631502E0
1.120248624E1,2.343146324E0,-6.185551882E-1,-1.604185104E-1,2.428719687E0
1.121947838E1,3.163318157E0,-8.539674282E-1,6.254549026E-1,3.335721206E0
1.123645903E1,3.478070736E0,-1.307371616E0,2.516079903E0,4.487410686E0
1.125345718E1,2.925095558E0,-1.618137002E0,4.695132256E0,5.763576865E0
1.127045115E1,1.357977152E0,-1.565396786E0,5.201669693E0,5.599280011E0
1.128744465E1,2.444597483E-1,-9.511195421E-1,4.170996666E0,4.285044007E0
1.130443866E1,2.261430025E-1,-4.397593737E-1,3.074376106E0,3.113891040E0
1.132143213E1,5.402395725E-1,-1.512460709E-1,2.226891518E0,2.296471206E0
1.133842594E1,7.389217615E-1,-3.028244376E-1,1.372661591E0,1.588051590E0
1.135542117E1,6.596924067E-1,-5.100638866E-1,1.072506905E0,1.358539768E0
1.137241380E1,7.268483639E-1,-8.287805319E-1,1.030286789E0,1.508865992E0
1.138940849E1,7.983040810E-1,-1.124065876E0,1.415797234E0,1.976182002E0
1.140640125E1,6.558413506E-1,-1.356516242E0,1.720613480E0,2.287088747E0
1.142339465E1,1.562268734E-1,-1.409650207E0,1.472600937E0,2.044522942E0
1.144039158E1,-3.768106699E-1,-1.365408540E0,8.056297302E-1,1.629529387E0
1.145739570E1,-9.069466591E-1,-1.220983028E0,8.601379395E-2,1.523400857E0
1.147437123E1,-1.320204020E0,-1.079582930E0,-6.642446518E-1,1.830207341E0
1.149138022E1,-1.516295910E0,-1.012910843E0,-1.216850281E0,2.192228608E0
1.150837432E1,-1.650540471E0,-9.629743099E-1,-1.564529419E0,2.469687363E0
1.152536838E1,-1.853789926E0,-9.157725573E-1,-1.574720383E0,2.599023037E0
1.154236606E1,-2.143146992E0,-8.212802410E-1,-1.432700157E0,2.705588661E0
1.155935628E1,-2.496443272E0,-6.699125767E-1,-1.103399277E0,2.810427340E0
1.157636289E1,-2.751644135E0,-4.191948771E-1,-8.809165955E-1,2.919466362E0
1.159335745E1,-2.811539650E0,-1.716336012E-1,-6.462240219E-1,2.889951346E0
1.161035108E1,-2.740730286E0,7.762002945E-2,-4.685249329E-1,2.781572034E0
1.162733217E1,-2.595631838E0,3.132555485E-1,-2.093505859E-1,2.622834601E0
1.164434405E1,-2.349793434E0,4.890758991E-1,6.700229645E-2,2.401085947E0
1.166133199E1,-2.249843597E0,7.076812983E-1,3.523664474E-1,2.384695189E0
1.167830541E1,-1.894839525E0,8.410181999E-1,5.167512894E-1,2.136529975E0
1.169532274E1,-1.143351674E0,8.189126253E-1,1.034984589E0,1.746156934E0
1.171231052E1,-5.055687428E-1,6.538689733E-1,2.100406647E0,2.257177988E0
1.172930852E1,-2.655550241E-1,4.360592365E-1,3.283850670E0,3.323302928E0
1.174630241E1,-1.802878380E-1,1.226078868E-1,4.106431961E0,4.112215929E0
1.176329592E1,-3.205261230E-1,-4.625499249E-3,4.264147758E0,4.276179895E0
1.178028627E1,-6.469359994E-1,1.789273024E-1,3.556250572E0,3.619041213E0
1.179728814E1,-8.299772739E-1,3.366177678E-1,1.930829048E0,2.128444176E0
1.181427701E1,-9.297626615E-1,5.922875404E-1,4.429893494E-1,1.188066791E0
1.183127216E1,-8.985699415E-1,7.696223259E-1,-6.088590622E-1,1.330584767E0
1.184825140E1,-6.576591134E-1,7.775478363E-1,-1.006659508E0,1.431942566E0
1.186525621E1,-1.298429966E-1,6.159212589E-1,-6.740789413E-1,9.222801202E-1
1.188225700E1,2.412245274E-1,3.938544989E-1,-1.363945007E-2,4.620570024E-1
1.189923369E1,3.892847300E-1,1.249560118E-1,5.519437790E-1,6.868759284E-1
1.191623538E1,1.362841129E-1,-7.521736622E-2,9.248342514E-1,9.378429528E-1
1.193322410E1,-4.324812889E-1,-1.926988363E-1,9.524488449E-1,1.063640780E0
1.195021430E1,-9.497826099E-1,-2.169717550E-1,5.282278061E-1,1.108236601E0
1.196721069E1,-1.167927265E0,-2.207609415E-1,-1.118202209E-1,1.193856462E0
1.198420336E1,-1.185880303E0,-1.882547140E-1,-5.584964752E-1,1.324262151E0
1.200119721E1,-1.151257992E0,-1.581709385E-1,-1.015612602E0,1.543334691E0
1.201820526E1,-1.125353336E0,-1.465460062E-1,-1.337531090E0,1.754105265E0
1.203520009E1,-1.054684997E0,-1.912435293E-1,-1.502126694E0,1.845350680E0
1.205219472E1,-8.375331759E-1,-2.588070631E-1,-1.217360497E0,1.500136492E0
1.206918392E1,-5.792372227E-1,-3.925788403E-1,-7.704896927E-1,1.040811353E0
1.208619147E1,-3.945113420E-1,-5.120781660E-1,-4.334106445E-1,7.782724676E-1
1.210315243E1,-2.565462589E-1,-6.134855747E-1,-2.242259979E-1,7.017533979E-1
1.212016442E1,-9.666800499E-3,-6.855776310E-1,7.996749878E-2,6.902933695E-1
1.213717036E1,3.621592522E-1,-8.001685143E-1,3.453111649E-1,9.437524971E-1
1.215416970E1,6.226873398E-1,-9.396380186E-1,6.249637604E-1,1.288890543E0
1.217114919E1,6.814528704E-1,-1.083657265E0,8.967018127E-1,1.562934811E0
1.218814326E1,6.156582832E-1,-1.080990791E0,1.101567268E0,1.661633732E0
1.220514124E1,4.206550121E-1,-9.338076115E-1,6.920852661E-1,1.236094377E0
1.222212674E1,5.195286274E-1,-1.039974213E0,3.779020309E-1,1.222401858E0
1.223912502E1,6.754205227E-1,-1.238619208E0,8.435878754E-1,1.643779465E0
1.225611851E1,4.187977314E-1,-1.444917560E0,1.475862503E0,2.107450693E0
1.227311250E1,-5.308222771E-2,-1.565005302E0,2.170282364E0,2.676225861E0
1.229010689E1,-8.136301041E-1,-1.472665310E0,2.021666527E0,2.630184900E0
1.230707272E1,-1.459201574E0,-1.146601677E0,9.691877365E-1,2.093630700E0
1.232409459E1,-1.492730379E0,-8.206654787E-1,-1.813058853E-1,1.713069653E0
1.234108769E1,-1.271103144E0,-4.726798534E-1,-1.132352829E0,1.766734948E0
1.235807584E1,-8.414905667E-1,-2.452675104E-1,-1.898210049E0,2.090804609E0
1.237506699E1,-2.112200260E-1,-1.317429543E-1,-2.074740410E0,2.089621467E0
1.239207303E1,3.856556416E-1,-3.591227531E-2,-1.600153923E0,1.646363430E0
1.240904714E1,7.595498562E-1,-6.166720390E-2,-1.128396034E0,1.361615378E0
1.242604477E1,7.145683765E-1,-1.204373837E-1,-5.867710114E-1,9.324233737E-1
1.244303835E1,1.216211319E-1,-2.233543396E-1,-1.695013046E-1,3.056297646E-1
1.246003237E1,-7.473949194E-1,-3.249651194E-1,6.039333344E-2,8.172201962E-1
1.247702611E1,-1.501104236E0,-4.462113380E-1,9.393787384E-2,1.568834857E0
1.249402039E1,-2.066051245E0,-5.141781569E-1,-3.958225250E-2,2.129439757E0
1.251102988E1,-2.475594044E0,-6.274224520E-1,-4.511175156E-1,2.593401592E0
1.252800064E1,-2.795662403E0,-7.755837440E-1,-7.918119431E-1,3.007361729E0
1.254501431E1,-2.908307791E0,-8.742016554E-1,-7.621622086E-1,3.131034010E0
1.256201954E1,-2.900674820E0,-1.261135578E0,-7.924127579E-1,3.260720064E0
1.257899260E1,-2.865058899E0,-1.293305993E0,-7.869424820E-1,3.240444623E0
1.259599929E1,-2.828265667E0,-1.425907850E0,-7.454633713E-1,3.253923097E0
1.261298789E1,-2.825327873E0,-1.537599444E0,-7.707796097E-1,3.307686631E0
1.262998444E1,-2.707551718E0,-1.686705112E0,-8.352308273E-1,3.297487070E0
1.264697811E1,-2.359040976E0,-1.801884174E0,-6.488199234E-1,3.038556926E0
1.266397268E1,-1.995562792E0,-1.961702585E0,-2.420101166E-1,2.808757160E0
1.268096583E1,-1.676985025E0,-2.220504045E0,3.707141876E-1,2.807195398E0
1.269796332E1,-1.722730875E0,-2.289676189E0,8.535099030E-1,2.989798969E0
1.271493723E1,-1.698815227E0,-2.300027847E0,1.208249092E0,3.104185423E0
1.273193489E1,-1.166702509E0,-2.506832123E0,1.988529205E0,3.405825955E0
1.274894592E1,-4.137357473E-1,-2.608546495E0,3.343163490E0,4.260567358E0
1.276593569E1,3.210651875E-1,-2.816936970E0,4.378423691E0,5.216206549E0
1.278292922E1,5.323817730E-1,-2.904625416E0,4.369700432E0,5.273951177E0
1.279992311E1,-1.155757904E-1,-2.623933792E0,3.173938751E0,4.119741922E0
1.281691730E1,-4.926871061E-1,-2.359097719E0,1.552286148E0,2.866648726E0
1.283391093E1,-4.253933430E-1,-1.962215662E0,5.355577469E-1,2.077997089E0
1.285090371E1,-1.660790443E-1,-1.596550822E0,-1.186656952E-2,1.605209517E0
1.286790066E1,-1.932177544E-1,-1.245964527E0,-3.682374954E-1,1.313529427E0
1.288489207E1,-2.852061987E-1,-1.024497747E0,-6.143035889E-1,1.228131552E0
1.290187076E1,-5.124155283E-1,-8.574513197E-1,-6.683673859E-1,1.201876617E0
1.291886914E1,-7.290761471E-1,-8.987537622E-1,-4.207286835E-1,1.231390669E0
1.293585939E1,-8.238462210E-1,-9.686324596E-1,1.369571686E-1,1.278956099E0
1.295284547E1,-9.113852978E-1,-1.136951327E0,8.741035461E-1,1.699217023E0
1.296984696E1,-1.149922252E0,-1.248674989E0,1.663155556E0,2.376467297E0
1.298684521E1,-1.485546350E0,-1.317101955E0,2.043707848E0,2.849271361E0
1.300384034E1,-1.679211736E0,-1.315791965E0,1.897798538E0,2.855293302E0
1.302084388E1,-1.684908152E0,-1.215501666E0,1.309684753E0,2.455938503E0
1.303783323E1,-1.572512269E0,-1.074765444E0,6.696376801E-1,2.018992377E0
1.305483000E1,-1.577359915E0,-9.560438395E-1,8.337402344E-2,1.846357320E0
1.307182578E1,-1.646004915E0,-9.265009165E-1,-4.651432037E-1,1.945274872E0
1.308881954E1,-1.678378820E0,-9.386203289E-1,-8.781919479E-1,2.114044627E0
1.310580067E1,-1.805728197E0,-9.446176291E-1,-1.123912811E0,2.327259503E0
1.312280438E1,-1.925025821E0,-9.535774589E-1,-1.245048523E0,2.482978092E0
1.313980393E1,-1.982076168E0,-9.240784049E-1,-1.171026230E0,2.480695319E0
1.315679513E1,-1.899115682E0,-9.063106775E-1,-1.022610664E0,2.339609366E0
1.317378920E1,-1.913389683E0,-8.927095532E-1,-1.009657860E0,2.340384460E0
1.319078276E1,-1.941166520E0,-8.370995522E-1,-9.704179764E-1,2.326064094E0
1.320776438E1,-1.931695223E0,-8.069647551E-1,-7.855434418E-1,2.236004707E0
1.322476951E1,-1.806090117E0,-7.726128697E-1,-4.133024216E-1,2.007414020E0
1.324175185E1,-1.630433440E0,-7.454088926E-1,-2.726907730E-1,1.813369206E0
1.325876046E1,-1.349920154E0,-8.690693974E-1,-1.547298431E-1,1.612918895E0
1.327575225E1,-7.942653894E-1,-1.106389761E0,3.651628494E-1,1.410070820E0
1.329274709E1,-5.728170872E-1,-1.261088490E0,1.216271400E0,1.843306734E0
1.330974247E1,-6.628136635E-1,-1.418931246E0,1.944804192E0,2.496988421E0
1.332673136E1,-1.002451777E0,-1.412282586E0,2.465636253E0,3.013107002E0
1.334372517E1,-1.286425352E0,-1.300145626E0,2.557500839E0,3.144213634E0
1.336072480E1,-1.126510143E0,-1.099326491E0,2.668297768E0,3.097960105E0
1.337770150E1,-6.802809238E-1,-1.007667303E0,2.812149048E0,3.063716337E0
1.339470399E1,-3.436884880E-1,-8.993847370E-1,2.716034889E0,2.881641928E0
1.341169283E1,-1.722037792E-1,-7.251732349E-1,2.170355797E0,2.294771154E0
1.342868430E1,9.926557541E-3,-5.316575766E-1,1.529136658E0,1.618955600E0
1.344567854E1,1.809411049E-1,-2.919667363E-1,9.234399796E-1,9.852541065E-1
1.346266169E1,2.008135319E-1,-1.137612462E-1,4.587841034E-1,5.135664993E-1
1.347966601E1,2.974855900E-1,-6.302267313E-2,1.363077164E-1,3.332406445E-1
1.349667596E1,1.135938168E-1,1.481165886E-1,-2.147932053E-1,2.845666882E-1
1.351367676E1,-4.404783249E-2,1.055998206E-1,-4.654102325E-1,4.792684198E-1
1.353064017E1,-2.151839733E-1,9.569966793E-2,-6.056470871E-1,6.498237937E-1
1.354764378E1,-3.429021835E-1,2.948510647E-2,-8.258762360E-1,8.947194175E-1
1.356464877E1,-4.383213520E-1,-1.216329932E-1,-1.101799011E0,1.192007237E0
1.358162749E1,-5.560816526E-1,-2.534388900E-1,-1.101554871E0,1.259714733E0
1.359861001E1,-7.678452730E-1,-4.062078595E-1,-1.053409576E0,1.365380139E0
1.361561710E1,-8.934358358E-1,-5.881587267E-1,-9.122123718E-1,1.405805709E0
1.363261096E1,-9.774854183E-1,-7.482109070E-1,-6.115789413E-1,1.374527594E0
1.364959215E1,-1.049974203E0,-9.135246277E-1,-4.238805771E-1,1.454870378E0
1.366659873E1,-1.171549916E0,-1.003654599E0,-4.147739410E-1,1.597463359E0
1.368358903E1,-1.327311993E0,-1.004332423E0,-3.301811218E-1,1.696897261E0
1.370057110E1,-1.349599481E0,-8.895919323E-1,-1.936712265E-1,1.627974542E0
1.371759157E1,-1.018768072E0,-9.261621237E-1,4.533576965E-2,1.377577583E0
1.373459019E1,-4.824577570E-1,-1.086092830E0,9.257173538E-1,1.506424821E0
1.375158123E1,-2.168321609E-1,-1.255625725E0,2.177042961E0,2.522524173E0
1.376856711E1,-1.371501684E-1,-1.498194337E0,3.263220787E0,3.593328032E0
1.378556597E1,-4.172202349E-1,-1.553138733E0,3.554559708E0,3.901436577E0
1.380255296E1,-5.880630016E-1,-1.531123757E0,3.182815552E0,3.580568794E0
1.381955705E1,-4.958927631E-1,-1.331968307E0,2.374327660E0,2.767215395E0
1.383655097E1,-1.967940331E-1,-1.136145353E0,1.650659561E0,2.013512141E0
1.385354490E1,-9.907484055E-3,-9.569196105E-1,9.005222321E-1,1.314052354E0
1.387052487E1,-3.156018257E-2,-8.202677369E-1,2.570381165E-1,8.601766090E-1
1.388752723E1,-1.816114187E-1,-6.712381840E-1,-2.347240448E-1,7.339201484E-1
1.390451610E1,-3.283492327E-1,-5.138048530E-1,-6.113576889E-1,8.634621412E-1
1.392150017E1,-4.109374285E-1,-2.767579556E-1,-1.078085899E0,1.186479558E0
1.393850086E1,-4.456903338E-1,-2.280223370E-2,-1.579900742E0,1.641720490E0
1.395549501E1,-4.667313695E-1,2.158529758E-1,-2.103533745E0,2.165475674E0
1.397248893E1,-4.280658364E-1,3.703845739E-1,-2.251908779E0,2.321964307E0
1.398948953E1,-4.991349578E-1,4.530382156E-1,-2.185076714E0,2.286687468E0
1.400647360E1,-5.092239380E-1,4.862022400E-1,-2.159550190E0,2.271422167E0
1.402347482E1,-4.904451966E-1,5.304870605E-1,-1.994484901E0,2.121302202E0
1.404047796E1,-2.277928591E-1,5.836737156E-1,-1.919992447E0,2.019637490E0
1.405747661E1,1.771434546E-1,5.503318310E-1,-1.774796009E0,1.866586671E0
1.407445982E1,4.800105095E-1,4.918470383E-1,-1.587605476E0,1.729975360E0
1.409145629E1,4.898892641E-1,3.864051104E-1,-1.332762718E0,1.471583115E0
1.410845643E1,4.337230921E-1,2.292236090E-1,-7.963409424E-1,9.353171013E-1
1.412544774E1,4.038054943E-1,3.514349461E-2,4.535675049E-3,4.053572681E-1
1.414243840E1,4.101583958E-1,-1.777011156E-1,7.853336334E-1,9.036351653E-1
1.415941535E1,1.962738037E-1,-1.266965866E-1,1.145907402E0,1.169478176E0
1.417642869E1,9.419000149E-2,-9.877288342E-2,4.888916016E-1,5.075853002E-1
1.419341947E1,2.528967857E-1,-2.384586334E-1,-9.744071960E-2,3.609903017E-1
1.421041937E1,3.177384138E-1,-3.488779068E-1,1.769495010E-1,5.039688675E-1
1.422739446E1,3.490591049E-2,-5.435073376E-1,8.795070648E-1,1.034481187E0
1.424439657E1,-3.254158497E-1,-6.880919933E-1,1.823260307E0,1.975764210E0
1.426138434E1,-4.881777763E-1,-7.466631532E-1,2.714651108E0,2.857473367E0
1.427837616E1,-5.738117695E-1,-6.096845865E-1,3.092400551E0,3.203734759E0
1.429538694E1,-5.561709404E-1,-4.497970045E-1,2.488583565E0,2.589341928E0
1.431236637E1,-5.563265085E-1,-3.154821396E-1,1.286126137E0,1.436366459E0
1.432937707E1,-4.770220518E-1,-2.516328692E-1,3.724451065E-1,6.554269571E-1
1.434636775E1,-2.303632498E-1,-1.410912275E-1,-3.775501251E-2,2.727625383E-1
1.436336199E1,2.990787029E-1,-8.960086107E-2,1.250581741E-1,3.363271202E-1
1.438035262E1,5.946344137E-1,6.959557533E-2,4.433603287E-1,7.449845711E-1
1.439733665E1,6.958233118E-1,3.121834993E-1,4.236993790E-1,8.724389848E-1
1.441432988E1,6.029422283E-1,6.174740791E-1,1.744318008E-1,8.804771560E-1
1.443132409E1,5.758157969E-1,8.193452358E-1,-3.225021362E-1,1.052092237E0
1.444831805E1,6.553993225E-1,9.829273224E-1,-8.262290955E-1,1.441647985E0
1.446531220E1,8.327865601E-1,1.038067698E0,-1.213578224E0,1.801080261E0
1.448231713E1,8.834131956E-1,1.116670728E0,-1.504250526E0,2.071265805E0
1.449930002E1,8.264602423E-1,1.095409274E0,-1.512552261E0,2.042246888E0
1.451629501E1,7.421051264E-1,1.059306741E0,-1.375450134E0,1.888044984E0
1.453328542E1,5.210342407E-1,9.182112217E-1,-1.046495438E0,1.486519838E0
1.455029780E1,2.362573147E-1,7.978684902E-1,-4.985198975E-1,9.700173888E-1
1.456727595E1,3.980159760E-3,7.352828979E-1,-2.706136703E-1,7.835103958E-1
1.458426916E1,-2.400056124E-1,7.029660940E-1,-2.411327362E-1,7.809667213E-1
1.460127644E1,-5.262246728E-1,6.694653034E-1,-4.539470673E-1,9.649684651E-1
1.461826732E1,-7.645478845E-1,6.303033829E-1,-6.651630402E-1,1.193422680E0
1.463526673E1,-1.015597343E0,5.925474167E-1,-7.009983063E-1,1.368922580E0
1.465224510E1,-1.466389537E0,4.812554121E-1,-5.902719498E-1,1.652369819E0
1.466925200E1,-1.831468821E0,4.312608242E-1,-2.158336639E-1,1.893897597E0
1.468623288E1,-1.805050135E0,4.423176050E-1,3.551034927E-1,1.892075406E0
1.470322415E1,-1.756911755E0,6.559885740E-1,9.198036194E-1,2.088803155E0
1.472024193E1,-1.318482876E0,5.827476978E-1,1.325716972E0,1.958447718E0
1.473720760E1,-5.973576903E-1,2.399547100E-1,2.495346069E0,2.577046076E0
1.475420673E1,-1.556992531E-2,-1.810733080E-1,4.187930107E0,4.191871724E0
1.477121692E1,4.138702154E-1,-9.272187352E-1,5.070356369E0,5.171028606E0
1.478819663E1,1.291731596E-1,-1.012187123E0,4.982707977E0,5.086117111E0
1.480517782E1,-4.258369803E-1,-6.548787951E-1,3.317789078E0,3.408508139E0
1.482217339E1,-8.158651590E-1,-2.270495892E-2,8.557939529E-1,1.182596619E0
1.483916805E1,-1.120349050E0,5.013591051E-1,-1.124359131E0,1.664549909E0
1.485616231E1,-1.207708120E0,9.890396595E-1,-1.993204117E0,2.531722932E0
1.487315645E1,-1.191886067E0,1.165626764E0,-1.919239521E0,2.542195604E0
1.489014973E1,-1.031510949E0,1.045460463E0,-1.245310783E0,1.925565206E0
1.490714351E1,-8.820471764E-1,6.853942871E-1,-5.193452835E-1,1.231865282E0
1.492413732E1,-7.999678254E-1,8.848094940E-2,6.059932709E-2,8.071243266E-1
1.494113161E1,-1.033405542E0,-3.141188622E-1,6.114625931E-1,1.241162430E0
1.495812524E1,-1.234402299E0,-5.895626545E-1,9.335269928E-1,1.656141843E0
1.497511962E1,-1.360393167E0,-7.473978996E-1,5.796728134E-1,1.656892802E0
1.499211377E1,-1.320732594E0,-7.120836973E-1,-1.641178131E-1,1.509414599E0
1.500910987E1,-1.073776841E0,-5.849416256E-1,-9.838590622E-1,1.569436862E0
1.502611042E1,-8.607194424E-1,-5.137276649E-1,-1.686704636E0,1.962072017E0
1.504310470E1,-8.424284458E-1,-4.993655682E-1,-2.131915569E0,2.346085176E0
1.506008067E1,-9.618797302E-1,-6.319625378E-1,-2.117080212E0,2.409692488E0
1.507709261E1,-8.896898031E-1,-7.398052216E-1,-1.646243095E0,2.012206759E0
1.509408574E1,-6.271158457E-1,-8.386237621E-1,-1.055764198E0,1.487011143E0
1.511106465E1,-3.839170933E-1,-9.486806393E-1,-6.645059586E-1,1.220227626E0
1.512808791E1,-4.486017227E-1,-9.092938900E-1,-6.621437073E-1,1.210988511E0
1.514508063E1,-4.252625704E-1,-8.070909977E-1,-8.659095764E-1,1.257793118E0
1.516205133E1,-3.542843461E-1,-6.553688049E-1,-9.806108475E-1,1.231512608E0
1.517906569E1,-2.865420580E-1,-5.730125904E-1,-8.675155640E-1,1.078440093E0
1.519606657E1,-2.686114907E-1,-5.149662495E-1,-5.992479324E-1,8.345300807E-1
1.521305564E1,-2.571631670E-1,-4.046590328E-1,-4.174900055E-2,4.812741489E-1
1.523004749E1,-2.497476339E-1,-4.375393391E-1,4.988517761E-1,7.089905842E-1
1.524704892E1,-2.361488938E-1,-4.541022778E-1,8.592071533E-1,1.000106050E0
1.526402348E1,2.463424206E-2,-5.873196125E-1,1.273724556E0,1.402827651E0
1.528102926E1,4.290906191E-1,-8.077545166E-1,2.057359695E0,2.251513943E0
1.529802884E1,4.420454502E-1,-9.115248919E-1,2.678230286E0,2.863424396E0
1.531501823E1,1.516839862E-1,-9.519624710E-1,2.481994629E0,2.662618620E0
1.533201123E1,8.470726013E-2,-9.132634401E-1,1.633819580E0,1.873657346E0
1.534899936E1,2.629671693E-1,-8.374373913E-1,7.059469223E-1,1.126416519E0
1.536599805E1,6.902471185E-1,-7.277598381E-1,8.259963989E-2,1.006428421E0
1.538298237E1,1.140425920E0,-6.699028015E-1,-1.155347824E-1,1.327663108E0
1.539997621E1,1.270155668E0,-6.263062954E-1,-2.328481674E-1,1.435191021E0
1.541697022E1,9.967653155E-1,-5.428168774E-1,-4.673376083E-1,1.227434600E0
1.543396378E1,6.822898388E-1,-4.610419273E-1,-7.776060104E-1,1.132585622E0
1.545095785E1,6.419299841E-1,-3.996386528E-1,-7.043991089E-1,1.033423080E0
1.546795498E1,7.219043970E-1,-3.710777760E-1,-7.052774429E-1,1.075295748E0
1.548495760E1,6.140791178E-1,-4.190285206E-1,-9.980287552E-1,1.244483612E0
1.550194048E1,3.725993037E-1,-4.480774403E-1,-1.391376019E0,1.508486281E0
1.551894654E1,1.149311662E-1,-5.206210613E-1,-1.918179989E0,1.990896766E0
1.553592770E1,-6.900066137E-2,-6.464350224E-1,-2.220623493E0,2.313829732E0
1.555292190E1,-2.463589907E-1,-7.830269337E-1,-2.134140491E0,2.286565015E0
1.556992535E1,-3.799031675E-1,-1.052183151E0,-1.687264442E0,2.024420188E0
1.558692536E1,-5.513684750E-1,-1.253426790E0,-1.184305191E0,1.810432186E0
1.560391707E1,-7.749406099E-1,-1.423781991E0,-7.040052414E-1,1.767289305E0
1.568888253E1,-1.480036259E0,-1.029116988E0,1.109347343E0,2.116657892E0
1.570586945E1,-1.182795286E0,-7.506660223E-1,9.388151169E-1,1.686380144E0
1.572287667E1,-1.053796411E0,-4.227266312E-1,5.792713165E-1,1.274652870E0
1.573986414E1,-1.151420832E0,4.918026924E-2,1.418294907E-1,1.161165033E0
1.575684830E1,-1.242633462E0,7.094032764E-1,-3.348073959E-1,1.469519283E0
1.577385545E1,-6.973810792E-1,1.241142273E0,-4.282846451E-1,1.486674897E0
1.579084868E1,6.680772305E-1,1.401382208E0,3.691463470E-1,1.595765742E0
1.587580277E1,1.151129723E0,1.145368695E0,2.047910690E0,2.613600444E0
1.589279183E1,1.630286694E0,1.393412948E0,8.104696274E-1,2.292661197E0
1.590977872E1,2.183553934E0,1.112318993E0,4.755382538E-1,2.496256789E0
1.592678701E1,2.267757654E0,6.724181175E-1,6.819477081E-1,2.461691203E0
1.594378101E1,2.198916912E0,4.909014702E-2,9.761409760E-1,2.406345078E0
1.596077899E1,2.437714338E0,-5.797715187E-1,1.162203789E0,2.762119450E0
1.597777787E1,2.689650059E0,-1.114131331E0,1.297790527E0,3.187438833E0
1.599477793E1,2.630804300E0,-1.432176352E0,1.259751320E0,3.249497462E0
1.601175897E1,2.567822456E0,-1.637526393E0,8.111944199E-1,3.151704498E0
1.602876041E1,2.609131575E0,-1.680967927E0,1.707487106E-1,3.108436241E0
1.604576036E1,2.737770081E0,-1.661049604E0,-6.170396805E-1,3.261166780E0
1.606273873E1,2.689900875E0,-1.704696417E0,-1.449904442E0,3.499111242E0
1.607974239E1,2.396918058E0,-1.660760880E0,-2.305824757E0,3.717549016E0
1.609674272E1,2.185402393E0,-1.621468544E0,-3.120810986E0,4.140604433E0
1.611371974E1,1.935218334E0,-1.620455027E0,-3.640928268E0,4.430271228E0
1.613072931E1,1.847221375E0,-1.592110157E0,-3.569455624E0,4.322968310E0
1.614771851E1,1.772558212E0,-1.556492329E0,-3.365516663E0,4.109906738E0
1.616470873E1,1.810799241E0,-1.595246077E0,-3.187477112E0,3.997976272E0
1.618169282E1,1.834716082E0,-1.602909327E0,-2.854320049E0,3.752684953E0
1.619870573E1,1.800426006E0,-1.539422750E0,-2.669235229E0,3.568777510E0
1.621569679E1,1.736014962E0,-1.565087795E0,-2.575322151E0,3.477863128E0
1.623269068E1,1.551911235E0,-1.449501991E0,-2.159587383E0,3.028745973E0
1.624967115E1,1.473454714E0,-1.471417665E0,-1.703559875E0,2.690400526E0
1.626667520E1,1.399181366E0,-1.507772446E0,-1.187870502E0,2.375315258E0
1.628367533E1,1.221214056E0,-1.640884161E0,-8.957910538E-1,2.233003854E0
1.630066594E1,1.149518490E0,-1.836698055E0,-5.645580292E-1,2.239102113E0
1.631765922E1,1.615650177E0,-2.342628479E0,5.178985596E-1,2.892482083E0
1.633465428E1,2.324456453E0,-2.945645571E0,2.927929878E0,4.759485162E0
1.635164425E1,2.642980576E0,-3.365446329E0,5.748566628E0,7.166421254E0
1.636862432E1,1.728305936E0,-3.424946547E0,6.411194801E0,7.471326458E0
1.638562631E1,1.283915043E-1,-3.146681786E0,4.599308014E0,5.574201723E0
1.640261622E1,-3.247858882E-1,-2.654979944E0,2.335862160E0,3.551148604E0
1.641961021E1,1.068511009E-1,-2.210172176E0,1.123157501E0,2.481483625E0
1.643660574E1,8.165773153E-1,-2.111100912E0,3.971157074E-1,2.298096268E0
1.645360376E1,1.120102286E0,-2.163767815E0,2.585792542E-2,2.436634753E0
1.647060156E1,9.236787558E-1,-2.164645672E0,-1.925735474E-1,2.361346628E0
1.648759950E1,6.882900000E-1,-2.111156225E0,-2.712478638E-1,2.237029087E0
1.650459369E1,7.195898294E-1,-2.065891266E0,-2.186584473E-2,2.187737269E0
1.652158017E1,7.115956545E-1,-2.039921284E0,2.068672180E-1,2.170355101E0
1.653856465E1,2.835891247E-1,-1.920042038E0,1.444692612E-1,1.946241400E0
1.655556142E1,-3.775354624E-1,-1.690664172E0,-1.869964600E-2,1.732405277E0
1.657257173E1,-1.011802077E0,-1.416869998E0,-8.614635468E-2,1.743182500E0
1.658953734E1,-1.360957861E0,-1.196199894E0,-6.071567535E-2,1.812949773E0
1.660655932E1,-1.498776674E0,-9.913961291E-1,-1.707077026E-4,1.796996893E0
1.662352207E1,-1.682912827E0,-7.875536680E-1,-1.463022232E-1,1.863824214E0
1.664053068E1,-2.017312765E0,-4.554232359E-1,-2.053928375E-1,2.078255839E0
1.665753495E1,-2.173789501E0,-1.848812103E-1,-3.092451096E-1,2.203446027E0
1.667453483E1,-2.266077042E0,8.468031883E-2,-2.707500458E-1,2.283764765E0
1.669152537E1,-2.266398668E0,3.106709719E-1,-1.118078232E-1,2.290323201E0
1.670852029E1,-2.126187801E0,5.219413042E-1,5.013847351E-2,2.189888389E0
1.672551301E1,-1.843248367E0,6.223876476E-1,1.827230453E-1,1.954051852E0
1.674251480E1,-1.650256634E0,6.970528364E-1,2.624301910E-1,1.810552186E0
1.675949378E1,-1.456250429E0,5.804064274E-1,3.247184753E-1,1.600930674E0
1.677650314E1,-1.502290726E0,5.751440525E-1,5.684146881E-1,1.706095942E0
1.679346489E1,-1.646859169E0,5.084806681E-1,8.849182129E-1,1.937466892E0
1.681047708E1,-1.084656239E0,2.643834352E-1,1.391384125E0,1.783907940E0
1.682746604E1,-2.129069567E-1,-6.020009518E-2,2.722942352E0,2.731916631E0
1.684445352E1,3.870019913E-1,-5.069718957E-1,4.369014740E0,4.415323413E0
1.686145806E1,4.808756113E-1,-7.883209586E-1,5.013871193E0,5.098195330E0
1.687844531E1,-1.421759129E-1,-5.891988277E-1,3.948597908E0,3.994846016E0
1.689543942E1,-5.916332006E-1,-9.217751026E-2,1.653142929E0,1.758240052E0
1.691243342E1,-4.788736701E-1,5.083198547E-1,6.585025787E-2,7.014594237E-1
1.692942677E1,-1.265227795E-1,9.367853403E-1,-9.278059006E-1,1.324537118E0
1.694642402E1,5.549719334E-1,9.747024775E-1,-8.948917389E-1,1.434876298E0
1.696343090E1,1.496800423E0,7.735084295E-1,-3.900308609E-1,1.729407664E0
1.698041946E1,2.300523758E0,5.348358154E-1,7.516956329E-2,2.363072020E0
1.699739482E1,2.834011555E0,1.495082378E-1,3.606281281E-1,2.860773821E0
1.701441135E1,2.708746672E0,-2.321732044E-1,5.946168900E-1,2.782944874E0
1.703140344E1,1.764515519E0,-4.840972424E-1,5.940723419E-1,1.923742993E0
1.704839657E1,9.528789520E-1,-5.518394709E-1,2.074909210E-2,1.101333566E0
1.706538922E1,6.228022575E-1,-4.646648169E-1,-5.659503937E-1,9.612990649E-1
1.708238036E1,4.439905882E-1,-4.154984951E-1,-1.400602341E0,1.526909807E0
1.709937550E1,3.010220528E-1,-3.543750048E-1,-2.439629555E0,2.483543494E0
1.711637700E1,2.557361126E-1,-3.404138088E-1,-3.287377357E0,3.314835201E0
1.713337936E1,2.767150402E-1,-3.496775627E-1,-3.733855724E0,3.760388834E0
1.715036078E1,3.242235184E-1,-3.912293911E-1,-3.595420361E0,3.631147050E0
1.716735498E1,4.353746176E-1,-4.358396530E-1,-3.291526794E0,3.348679725E0
1.718434734E1,3.592211008E-1,-4.728722572E-1,-3.152619362E0,3.208061223E0
1.720134406E1,3.156967163E-1,-5.052809715E-1,-3.087666035E0,3.144623160E0
1.721833314E1,1.758770943E-1,-5.174349546E-1,-2.990772724E0,3.040294915E0
1.723533778E1,3.184318542E-2,-5.752829313E-1,-2.824657440E0,2.882820510E0
1.725229501E1,7.022428513E-2,-6.663939953E-1,-2.574623585E0,2.660394522E0
1.726931806E1,3.154493570E-1,-7.671109438E-1,-2.056114197E0,2.217109173E0
1.728631558E1,5.951683521E-1,-9.011161923E-1,-9.403553009E-1,1.431958048E0
1.730328856E1,6.140096188E-1,-1.164731741E0,2.105398178E-1,1.333392236E0
1.732029955E1,2.679088116E-1,-1.133094907E0,1.480951309E0,1.883851369E0
1.733729084E1,-9.248518944E-2,-9.810397625E-1,2.317734718E0,2.518508835E0
1.735427440E1,1.015937328E-1,-1.018279314E0,3.213523865E0,3.372528677E0
1.737126850E1,4.796824455E-1,-1.000575900E0,4.849598885E0,4.974922786E0
1.738826264E1,9.018445015E-1,-1.180466652E0,6.285023689E0,6.458200043E0
1.740525494E1,9.978158474E-1,-1.169098854E0,6.980767250E0,7.147974538E0
1.742225018E1,4.800837040E-1,-5.655865669E-1,6.622645378E0,6.664067852E0
1.743926015E1,-2.427029610E-2,-6.665754318E-2,4.684874535E0,4.685411581E0
1.745625116E1,9.658145905E-2,2.136548012E-1,2.568271637E0,2.578952414E0
1.747324456E1,7.389740944E-1,6.139932871E-1,8.087091446E-1,1.255818836E0
1.749022881E1,1.670242548E0,8.240236044E-1,-4.804382324E-1,1.923420382E0
1.750723310E1,2.519446135E0,7.493655086E-1,-1.027302742E0,2.822146065E0
1.752422687E1,3.007437468E0,5.499476790E-1,-1.319573402E0,3.329924404E0
1.754122054E1,3.214954615E0,1.273935437E-1,-1.661412239E0,3.621112111E0
1.755821141E1,3.065657377E0,-3.266426921E-1,-1.926303387E0,3.635326029E0
1.757521149E1,2.651581526E0,-7.935167551E-1,-2.064753056E0,3.453079583E0
1.759220251E1,2.010355473E0,-1.079691410E0,-2.058673382E0,3.073336747E0
1.760919640E1,1.383718729E0,-1.208133698E0,-2.030544281E0,2.738133421E0
1.762618978E1,8.600368500E-1,-1.167689443E0,-2.255419254E0,2.681432086E0
1.764318078E1,4.337885380E-1,-1.076848507E0,-2.581185341E0,2.830246096E0
1.766019507E1,9.047329426E-2,-9.169424772E-1,-2.912872791E0,3.055126318E0
1.767717380E1,-1.949228048E-1,-6.286292672E-1,-3.063174248E0,3.133082528E0
1.769418550E1,-5.245099068E-1,-2.575379610E-1,-2.883359909E0,2.941972265E0
1.771116057E1,-7.515667081E-1,1.014056206E-1,-2.474995613E0,2.588578548E0
1.772814750E1,-1.079548955E0,5.282834768E-1,-1.701528549E0,2.083196770E0
1.774515396E1,-1.358193398E0,1.001203060E0,-7.348728180E-1,1.840417054E0
1.776214164E1,-1.414277554E0,1.450974226E0,1.511955261E-1,2.031838402E0
1.777913166E1,-1.174463391E0,1.892648697E0,8.361387253E-1,2.379203925E0
1.779613244E1,-8.480029106E-1,2.240434885E0,1.412070274E0,2.780755270E0
1.781312251E1,-5.865299702E-1,2.472183228E0,2.396778107E0,3.492886000E0
1.783010068E1,2.209974527E-1,2.173982859E0,3.242012024E0,3.909690948E0
1.784709636E1,5.418165922E-1,1.304479837E0,4.433957100E0,4.653515706E0
1.786409306E1,-5.133771896E-2,7.168248296E-1,5.639699936E0,5.685304633E0
1.788108515E1,-7.253198028E-1,3.438811302E-1,5.793864250E0,5.849205587E0
1.789807502E1,-1.259382010E0,2.530187368E-2,5.006339073E0,5.162374855E0
1.791506598E1,-1.575323582E0,3.017473221E-2,3.481162071E0,3.821131281E0
1.793207139E1,-1.932376623E0,1.932277083E-1,1.568806648E0,2.496511698E0
1.794907395E1,-2.136641026E0,3.126859665E-1,-3.149042130E-1,2.182240145E0
1.796606842E1,-2.172873735E0,4.512538910E-1,-1.435900688E0,2.643259565E0
1.798304908E1,-2.084511280E0,4.845021963E-1,-1.636466026E0,2.694058409E0
1.800004036E1,-1.470623136E0,1.713209152E-1,-1.074715614E0,1.829507287E0
1.801703769E1,-9.517934322E-1,-1.615424156E-1,-2.499885559E-1,9.972466935E-1
1.803404905E1,-7.731336951E-1,-5.645318627E-1,1.473999023E-2,9.574179870E-1
1.805103560E1,-9.464155436E-1,-8.433566689E-1,1.675033569E-1,1.278675184E0
1.806802504E1,-1.117866516E0,-1.060420513E0,7.650184631E-2,1.542715056E0
1.808503164E1,-1.385596275E0,-1.179556966E0,-2.182264328E-1,1.832717777E0
1.810200722E1,-1.500595927E0,-1.193989396E0,-6.255092621E-1,2.017092128E0
1.811900003E1,-1.455867052E0,-1.225842714E0,-9.046716690E-1,2.107289743E0
1.813600770E1,-1.296877861E0,-1.233931303E0,-1.160056114E0,2.133121852E0
1.815300082E1,-1.208434701E0,-1.203873396E0,-1.383470535E0,2.196273276E0
1.816998214E1,-1.068553567E0,-1.146935940E0,-1.707846165E0,2.318190522E0
1.818698587E1,-9.286457300E-1,-1.053057313E0,-1.989358425E0,2.434924956E0
1.820397094E1,-7.205654383E-1,-9.994156361E-1,-2.082492828E0,2.419674058E0
1.822098015E1,-6.059469581E-1,-8.197741508E-1,-2.038483143E0,2.279169783E0
1.823797049E1,-2.773010731E-1,-6.875764132E-1,-1.599604607E0,1.763063274E0
1.825496991E1,9.878277779E-3,-5.567775965E-1,-1.252485275E0,1.370699908E0
1.827196481E1,3.652259111E-1,-5.392649174E-1,-1.036745071E0,1.224351649E0
1.828893825E1,5.881273746E-1,-5.242493153E-1,-1.116343498E0,1.366365236E0
1.830593398E1,8.768916130E-1,-7.281063795E-1,-1.115751266E0,1.594985483E0
1.832292554E1,1.156008840E0,-7.487443686E-1,-8.215532303E-1,1.603722007E0
1.833991352E1,1.213612318E0,-7.705157995E-1,-1.276292801E-1,1.443204313E0
1.835689638E1,1.160287261E0,-7.852001190E-1,5.997037888E-1,1.523958789E0
1.837389939E1,1.031192899E0,-6.628977060E-1,1.256496429E0,1.755441665E0
1.839089316E1,1.473074794E0,-8.074135780E-1,2.041489601E0,2.643774920E0
1.840788779E1,2.005335093E0,-1.023194075E0,3.029732704E0,3.774596032E0
1.842488030E1,1.849863529E0,-1.194066525E0,3.853522301E0,4.438178012E0
1.844187428E1,9.562028646E-1,-1.029839993E0,3.714560509E0,3.971505269E0
1.845886831E1,1.137399673E-1,-5.740205646E-1,2.175270081E0,2.252606560E0
1.847586249E1,1.177037954E-1,-1.284179688E-1,6.482324600E-1,6.712307207E-1
1.849285628E1,5.882347822E-1,2.490030527E-1,-5.621433258E-1,8.508982301E-1
1.850985031E1,1.583381772E0,3.618530035E-1,-1.070861816E0,1.945451223E0
1.852684497E1,2.459249020E0,3.294328451E-1,-1.433205605E0,2.865398758E0
1.854383881E1,2.640513420E0,2.454649210E-1,-1.560422421E0,3.076927409E0
1.856083130E1,2.240928173E0,8.105802536E-2,-1.897957325E0,2.937783431E0
1.857782562E1,1.440785408E0,-9.993815422E-2,-1.919505119E0,2.402155309E0
1.859483180E1,6.188420057E-1,-3.402081728E-1,-1.835980892E0,1.967112825E0
1.861182341E1,1.315817833E-1,-4.978775978E-1,-1.828662872E0,1.899790454E0
1.862881678E1,-1.473233700E-1,-5.655103922E-1,-1.881170750E0,1.969850139E0
1.864581103E1,-4.186866283E-1,-5.519367456E-1,-2.152177334E0,2.260928999E0
1.866280513E1,-6.508576870E-1,-5.246108770E-1,-2.530703068E0,2.665199865E0
1.867979902E1,-8.862467408E-1,-4.304839373E-1,-2.822309971E0,2.989344958E0
1.869681625E1,-1.131479859E0,-3.147718906E-1,-2.932125092E0,3.158589174E0
1.871379673E1,-1.268402576E0,-1.474072933E-1,-2.685245991E0,2.973402098E0
1.873079649E1,-1.623291254E0,8.107161522E-2,-2.375578880E0,2.878371435E0
1.874777987E1,-2.020593643E0,3.864982128E-1,-2.081788540E0,2.926776907E0
1.876477715E1,-2.259834766E0,7.116761208E-1,-1.927124023E0,3.054037176E0
1.878176548E1,-2.270256519E0,8.915643692E-1,-1.212049484E0,2.723603429E0
1.879876963E1,-2.145469904E0,1.049948573E0,1.934680939E-1,2.396427136E0
1.881576281E1,-2.377660751E0,9.879316092E-1,2.002602577E0,3.261854778E0
1.883273846E1,-2.860562801E0,1.309783340E0,3.695622444E0,4.853450029E0
1.884973782E1,-2.737922192E0,1.515909433E0,4.622158051E0,5.581983911E0
1.886673168E1,-1.603210449E0,1.275053024E0,5.650679588E0,6.010509443E0
1.888372583E1,-9.286730886E-1,7.821238041E-1,6.486969948E0,6.599615932E0
1.890071920E1,-8.301565647E-1,2.424467802E-1,7.263413429E0,7.314719066E0
1.891771346E1,-1.199463725E0,-1.834968328E-1,7.487394333E0,7.585081292E0
1.893471066E1,-2.132163525E0,-2.290489376E-1,6.499863625E0,6.844473088E0
1.895171243E1,-2.468902111E0,-1.240065098E-1,4.209734917E0,4.881877028E0
1.896871059E1,-2.194888115E0,6.210982800E-2,1.915496826E0,2.913849612E0
1.898568903E1,-1.628776312E0,2.556837797E-1,3.561658859E-1,1.686754460E0
1.900268013E1,-9.474294186E-1,3.387081623E-1,-3.331184387E-2,1.006705221E0
1.901969349E1,-2.403324246E-1,1.103407145E-1,1.051139832E-2,2.646606074E-1
1.903665183E1,1.119250059E-1,-3.737809658E-1,4.618005753E-1,6.045652890E-1
1.905367925E1,-5.095183849E-2,-7.624949217E-1,8.457021713E-1,1.139827512E0
1.907065374E1,-2.379497290E-1,-1.201819539E0,7.327136993E-1,1.427536214E0
1.908765314E1,-2.878048420E-1,-1.531962872E0,3.331298828E-1,1.593962793E0
1.910465001E1,-2.354513407E-1,-1.779511452E0,3.074073792E-2,1.795283636E0
1.912164043E1,-1.522619724E-1,-2.024831772E0,-4.537076950E-1,2.080619640E0
1.913864383E1,-1.750029922E-1,-2.183850288E0,-1.081065178E0,2.443057520E0
1.915564422E1,-1.897999644E-1,-2.290481567E0,-1.904945374E0,2.985154387E0
1.917263478E1,-1.768893600E-1,-2.279159307E0,-2.494384766E0,3.383461593E0
1.918961593E1,-1.362286210E-1,-2.246624947E0,-2.961503029E0,3.719728764E0
1.920662341E1,6.549733877E-2,-2.188211918E0,-2.817431450E0,3.567979999E0
1.922361685E1,2.930498719E-1,-2.233250141E0,-2.418642521E0,3.305013777E0
1.924061028E1,3.634364009E-1,-2.189146519E0,-2.207044601E0,3.129775451E0
1.925760164E1,3.175923824E-1,-2.150022984E0,-2.117246151E0,3.034171224E0
1.927461293E1,2.554438710E-1,-2.098136902E0,-1.865868092E0,2.819378259E0
1.929159260E1,3.504053354E-1,-2.035853386E0,-1.225516319E0,2.401951947E0
1.930858594E1,2.991881967E-1,-1.829220176E0,-6.483688354E-1,1.963655310E0
1.932556398E1,1.518436074E-1,-1.589146852E0,-5.931901932E-1,1.703032238E0
1.934255128E1,2.337357998E-1,-1.341163158E0,-1.104046822E0,1.752789327E0
1.935955516E1,9.161808491E-1,-1.165325642E0,-1.376026154E0,2.022577359E0
1.937654514E1,1.389748216E0,-1.122339725E0,-3.588905334E-1,1.822045273E0
1.939354059E1,1.537702918E0,-1.240725994E0,1.116729736E0,2.269585108E0
1.941053826E1,9.708186388E-1,-1.107860088E0,2.512233734E0,2.912243317E0
1.942754752E1,-2.799376249E-1,-7.741878033E-1,2.313360214E0,2.455477002E0
1.944453759E1,-7.134363651E-1,-2.707087994E-1,7.574291229E-1,1.075162117E0
1.946151828E1,-4.872908592E-1,2.372288704E-1,-2.681875229E-1,6.046936959E-1
1.947852285E1,1.394680738E-1,3.984229565E-1,-9.044322968E-1,9.980931696E-1
1.949551761E1,1.002199650E0,3.296315670E-1,-6.413097382E-1,1.234641360E0
1.951251748E1,1.685621262E0,1.143784523E-1,9.504890442E-2,1.692168952E0
1.952950770E1,1.969190955E0,-3.405809402E-3,5.049819946E-1,2.032912057E0
1.954650074E1,1.788872480E0,-6.166458130E-2,7.009325027E-1,1.922283446E0
1.956348210E1,1.181979537E0,-5.074214935E-2,4.220829010E-1,1.256106829E0
1.958048857E1,5.632897615E-1,-2.269744873E-2,-1.857290268E-1,5.935535368E-1
1.959747236E1,1.921330690E-1,4.228281975E-2,-5.569400787E-1,5.906650526E-1
1.961447198E1,-3.180754185E-2,1.491925716E-1,-8.503847122E-1,8.639585071E-1
1.963147371E1,-1.469058990E-1,1.716821194E-1,-1.230527878E0,1.251101495E0
1.964846468E1,-2.022222281E-1,2.120985985E-1,-1.512266636E0,1.540399306E0
1.966545869E1,-2.324261665E-1,2.737913132E-1,-1.484685898E0,1.527506406E0
1.968242837E1,-3.384238482E-1,4.075508118E-1,-1.199097633E0,1.310901789E0
1.969945074E1,-4.860584736E-1,6.161324978E-1,-9.874982834E-1,1.261358377E0
1.971643522E1,-8.095261455E-1,8.622794151E-1,-9.793577194E-1,1.535578039E0
1.973343344E1,-1.132129908E0,1.062799931E0,-9.480838776E-1,1.819374854E0
1.975042467E1,-1.285382032E0,1.253198385E0,-9.317827225E-1,2.022605301E0
1.976742512E1,-1.296113729E0,1.338136911E0,-7.271385193E-1,1.999812896E0
1.978441970E1,-1.016930103E0,1.262087584E0,-1.731138229E-1,1.630024631E0
1.980142961E1,-9.258027077E-1,1.150885820E0,4.948987961E-1,1.557746335E0
1.981838456E1,-1.489555478E0,1.350250483E0,8.398923874E-1,2.178846280E0
1.983538666E1,-1.953752398E0,1.554761887E0,8.109750748E-1,2.625283514E0
1.985238475E1,-1.502377629E0,1.500525713E0,1.173105240E0,2.425879605E0
1.986936932E1,-4.687020183E-1,1.103162527E0,2.405815125E0,2.687860777E0
1.988636823E1,4.685986042E-2,2.944178581E-1,3.922871590E0,3.934183426E0
1.990336011E1,2.473020554E-2,-5.872682333E-1,5.027914047E0,5.062155196E0
1.992037000E1,-6.761637926E-1,-8.268071413E-1,4.776392937E0,4.894357671E0
1.993737550E1,-1.378375769E0,-7.007881403E-1,2.871816635E0,3.261649056E0
1.995435917E1,-1.418575764E0,-4.660183191E-1,7.557926178E-1,1.673544966E0
1.997134626E1,-1.078177214E0,-2.868809700E-1,-4.164695740E-1,1.190887779E0
1.998833285E1,-4.364890158E-1,-3.101234436E-1,-7.572135925E-1,9.274004722E-1
2.000533645E1,3.139950037E-1,-5.427391529E-1,-4.692516327E-1,7.831703169E-1
2.002235569E1,7.275507450E-1,-9.138218164E-1,-1.088018417E-1,1.173131808E0
2.003932508E1,6.445583105E-1,-1.154776812E0,2.992534637E-2,1.322822901E0
2.005631550E1,1.939709187E-1,-1.267026186E0,4.016494751E-2,1.282416974E0
2.007331382E1,-1.022841334E-1,-1.278138757E0,-1.673412323E-1,1.293098532E0
2.009030544E1,-2.038457990E-1,-1.138779521E0,-5.303134918E-1,1.272636754E0
2.010729700E1,-3.251087070E-1,-1.011769772E0,-1.063326836E0,1.503342177E0
2.012429654E1,-3.915509284E-1,-8.764044046E-1,-1.436674595E0,1.727839895E0
2.014128754E1,-4.449600577E-1,-7.390513420E-1,-1.843163490E0,2.035052331E0
2.015825443E1,-3.834957480E-1,-6.970837116E-1,-2.073102474E0,2.220528892E0
2.017527884E1,-1.844383478E-1,-6.387999058E-1,-1.986542702E0,2.094859119E0
2.019226549E1,-1.021925807E-1,-6.896030903E-1,-1.773748875E0,1.905828118E0
2.020928938E1,-5.559074879E-2,-7.035362720E-1,-1.329051971E0,1.504803230E0
2.022625919E1,5.890965462E-2,-7.505798340E-1,-9.373426437E-1,1.202269382E0
2.024324931E1,6.783604622E-3,-6.910278797E-1,-3.780374527E-1,7.877041726E-1
2.026024417E1,-1.102964878E-1,-6.650471687E-1,-2.375984192E-2,6.745499106E-1
2.027724369E1,-1.792433262E-1,-5.787425041E-1,8.309555054E-2,6.115357116E-1
2.029422730E1,-1.376473904E-2,-5.309095383E-1,-1.973628998E-2,5.314545390E-1
2.031121028E1,2.573035955E-1,-4.851429462E-1,-9.396648407E-2,5.571342017E-1
2.032820695E1,4.429717064E-1,-4.626176357E-1,1.677284241E-1,6.620965442E-1
2.034519990E1,2.220546007E-1,-1.084651947E-1,3.800477982E-1,4.533313060E-1
2.036219482E1,9.362578392E-2,3.877115250E-2,3.432960510E-1,3.579401742E-1
2.037918916E1,6.230335236E-1,6.117320061E-2,6.473989487E-1,9.005766656E-1
2.039618256E1,1.315143108E0,-1.551697254E-1,1.417925835E0,1.940152755E0
2.041318016E1,1.503006935E0,-6.109216213E-1,2.167859077E0,2.707742243E0
2.043018790E1,1.280135512E0,-9.599781036E-1,3.027432442E0,3.424273949E0
2.044717379E1,1.026624441E-1,-8.076484203E-1,2.846858025E0,2.960985674E0
2.046417115E1,-7.366805673E-1,-4.402024746E-1,1.150388718E0,1.435224957E0
2.048116543E1,-8.970974684E-1,9.107112885E-2,-3.036842346E-1,9.514735586E-1
2.049814392E1,-6.635397673E-1,5.426044464E-1,-1.453023911E0,1.687004177E0
2.051515355E1,5.407726765E-2,7.939980030E-1,-1.875626564E0,2.037481825E0
2.053213695E1,1.038030028E0,6.964910030E-1,-1.572847843E0,2.009093426E0
2.054914123E1,1.696975231E0,5.248322487E-1,-9.528636932E-1,2.015718989E0
2.056613506E1,2.120122433E0,2.012691498E-1,-6.130161285E-1,2.216126615E0
2.058312917E1,1.815501809E0,1.929259300E-2,-3.152961731E-1,1.842777984E0
2.060012287E1,8.837301731E-1,-1.015410423E-1,-2.318820953E-1,9.192708569E-1
2.061711731E1,1.694332361E-1,-9.061741829E-2,-5.131950378E-1,5.479856612E-1
2.063410727E1,-1.425209045E-1,6.717801094E-2,-8.574590683E-1,8.718148583E-1
2.065110783E1,-4.440621138E-1,2.581393719E-1,-1.430811882E0,1.520213715E0
2.066809568E1,-7.046732306E-1,4.503269196E-1,-1.811175346E0,1.994922262E0
2.068509586E1,-6.432005763E-1,5.242512226E-1,-2.000984192E0,2.166214223E0
2.070208784E1,-4.830020070E-1,5.201115608E-1,-1.647832870E0,1.794201812E0
2.071907377E1,-3.072724342E-1,4.754984379E-1,-1.036890030E0,1.181378875E0
2.080403301E1,-3.327343762E-1,9.169874191E-1,5.548563004E-1,1.122249351E0
2.082103038E1,-1.682481766E-1,8.492717743E-1,9.196720123E-1,1.263078226E0
2.083802435E1,-2.758549154E-1,8.972854614E-1,1.336956024E0,1.633605994E0
2.085500810E1,-8.526568413E-1,1.154063463E0,1.433281898E0,2.028098411E0
2.087201481E1,-9.421159625E-1,1.313272953E0,1.345973969E0,2.103310310E0
2.088900298E1,-2.052012682E-1,1.131214619E0,1.798963547E0,2.134952907E0
2.090600426E1,2.020375133E-1,5.046699047E-1,2.881358147E0,2.932189564E0
2.092300748E1,5.947214365E-2,-2.532750368E-1,3.986837387E0,3.995316950E0
2.094002318E1,-6.195875406E-1,-5.716508627E-1,4.134217262E0,4.219292097E0
2.095699152E1,-1.218996048E0,-4.444513321E-1,2.478455544E0,2.797540032E0
2.104196423E1,-1.085556746E-1,-6.149725914E-1,3.842039108E-1,7.332041106E-1
2.105895884E1,-7.555800676E-2,-8.083500862E-1,2.504253387E-1,8.496185759E-1
2.107595161E1,-2.689442635E-1,-7.853751183E-1,-1.205959320E-1,8.388614141E-1
2.109294562E1,-3.165042400E-1,-7.267482281E-1,-8.191900253E-1,1.139916759E0
2.110993730E1,-3.809043169E-1,-5.752568245E-1,-1.496187210E0,1.647599672E0
2.112693691E1,-4.482941031E-1,-4.794445038E-1,-2.176531792E0,2.273351111E0
2.114391066E1,-5.700106025E-1,-3.790314198E-1,-2.593348980E0,2.682169986E0
2.116092187E1,-5.769738555E-1,-2.621443272E-1,-2.537425518E0,2.615367419E0
2.117791218E1,-5.474421978E-1,-2.149345875E-1,-2.398525715E0,2.469577989E0
2.119491196E1,-5.516484976E-1,-1.873753071E-1,-2.096345425E0,2.175796339E0
2.121190273E1,-5.046440959E-1,-1.994438171E-1,-1.611633301E0,1.700530916E0
2.122889704E1,-3.414085507E-1,-2.396984100E-1,-1.079351425E0,1.157157995E0
2.124589107E1,-6.533223391E-2,-2.839868069E-1,-4.367609024E-1,5.250494197E-1
2.126289955E1,2.587378025E-2,-2.916114330E-1,-8.668899536E-4,2.927583165E-1
2.127986526E1,3.699779510E-3,-2.628154755E-1,2.835845947E-2,2.643669131E-1
2.129684932E1,1.909553409E-1,-2.548019886E-1,1.641921997E-1,3.582555988E-1
2.131385343E1,3.912214041E-1,-2.691664696E-1,4.636154175E-1,6.636595744E-1
2.133083741E1,3.922708035E-1,-2.175667286E-1,6.320428848E-1,7.750418523E-1
2.134784111E1,2.102160454E-1,6.257295609E-3,6.774053574E-1,7.093010346E-1
2.136483505E1,3.854324818E-1,-2.040863037E-2,6.518507004E-1,7.575513486E-1
2.138181897E1,8.738731146E-1,-7.708549500E-3,9.363946915E-1,1.280839045E0
2.139883994E1,1.413318634E0,-2.525746822E-1,1.789637566E0,2.294355279E0
2.141583004E1,1.496861458E0,-6.339824200E-1,2.552246094E0,3.025968945E0
2.143281119E1,1.199523568E0,-8.809496164E-1,2.891511917E0,3.252040926E0
2.144981810E1,3.358951807E-1,-6.000763178E-1,1.812340736E0,1.938426193E0
2.146681195E1,-6.036460400E-3,-3.920638561E-1,4.963016510E-2,3.952387372E-1
2.148379028E1,-6.098580360E-2,-3.722810745E-2,-8.659534454E-1,8.688961790E-1
2.150079487E1,2.533199787E-1,7.227706909E-2,-1.330563545E0,1.356390185E0
2.151779332E1,1.027527571E0,2.321958542E-2,-1.230021477E0,1.602905141E0
2.153478641E1,1.907021880E0,-1.722867489E-1,-7.743415833E-1,2.065434594E0
2.155177175E1,2.230743885E0,-3.795173168E-1,-3.840656281E-1,2.295159707E0
2.156876711E1,2.232597351E0,-4.851598740E-1,-1.879138947E-1,2.292418519E0
2.158577684E1,1.770892143E0,-5.087709427E-1,-5.181331635E-1,1.913992902E0
2.160276907E1,1.245980263E0,-5.205535889E-1,-1.075727463E0,1.726450818E0
2.161975676E1,8.628180027E-1,-4.547088146E-1,-1.538055897E0,1.821216888E0
2.163673917E1,4.958437681E-1,-3.774425983E-1,-1.883477688E0,1.983888142E0
2.165374541E1,1.281754375E-1,-2.404549122E-1,-2.127469063E0,2.144847808E0
2.167073853E1,-1.570699811E-1,-1.089298725E-1,-2.152471066E0,2.160941550E0
2.168774264E1,-4.129886925E-1,-2.845239639E-2,-1.953059196E0,1.996449204E0
2.170472658E1,-6.157197356E-1,4.203581810E-2,-1.534192085E0,1.653669603E0
2.172169367E1,-8.345584273E-1,7.078886032E-2,-8.808193207E-1,1.215459381E0
2.173870852E1,-9.959385395E-1,2.293601036E-1,-1.611013412E-1,1.034627118E0
2.175570554E1,-1.170028806E0,4.707081318E-1,3.219041824E-1,1.301597424E0
2.177270666E1,-1.274704337E0,7.525112629E-1,5.285339355E-1,1.571780032E0
2.178967971E1,-1.201231956E0,9.581694603E-1,6.975984573E-1,1.687510159E0
2.180667692E1,-1.070418596E0,1.125664473E0,9.499244690E-1,1.820789107E0
2.182367056E1,-1.350184798E0,1.455566406E0,1.097123146E0,2.268336781E0
2.184065188E1,-1.767172337E0,1.750116348E0,9.535226822E-1,2.663646149E0
2.185764870E1,-7.991499305E-1,1.509561300E0,1.097546577E0,2.030276932E0
2.187464379E1,1.761952639E-1,6.627969742E-1,2.847385406E0,2.928813455E0
2.189164592E1,5.625055432E-1,-1.973387003E-1,4.879673004E0,4.915949926E0
2.190863023E1,2.739894986E-1,-7.390991449E-1,5.481014252E0,5.537405080E0
2.192562475E1,-5.207222700E-1,-7.217804193E-1,4.140457153E0,4.235032951E0
2.194261947E1,-9.317938685E-1,-4.439311028E-1,1.496730804E0,1.818108286E0
2.195961148E1,-1.036440134E0,-1.232419014E-1,-4.546070099E-1,1.138448177E0
2.197660592E1,-1.005030632E0,1.467790604E-1,-1.493588448E0,1.806221779E0
2.199360082E1,-7.720531821E-1,9.019637108E-2,-1.392413139E0,1.594683621E0
2.201059423E1,-3.641071916E-1,-2.072894573E-1,-4.211425781E-1,5.940572676E-1
2.202758684E1,-2.659271359E-1,-5.633118153E-1,1.632184982E-1,6.439547507E-1
2.204458170E1,-4.940068424E-1,-7.930901051E-1,2.235765457E-1,9.607398955E-1
2.206158498E1,-6.090241075E-1,-8.578294516E-1,2.454528809E-1,1.080291094E0
2.207857930E1,-5.944089890E-1,-7.992773056E-1,-6.768226624E-2,9.983722485E-1
2.209557261E1,-4.614157379E-1,-6.612173319E-1,-5.910940170E-1,9.997524594E-1
2.211256685E1,-3.888406754E-1,-5.577983856E-1,-1.150709152E0,1.336588068E0
2.212955855E1,-4.123418927E-1,-4.215550423E-1,-1.544701099E0,1.653431576E0
2.214655740E1,-4.418415427E-1,-3.582823277E-1,-1.934638023E0,2.016535260E0
2.216356520E1,-4.964320660E-1,-3.475549221E-1,-2.014303684E0,2.103487236E0
2.218054831E1,-4.256871939E-1,-4.227633476E-1,-1.750896931E0,1.850831839E0
2.219755327E1,-4.016857147E-1,-5.041875839E-1,-1.325263500E0,1.473729920E0
2.221454689E1,-4.105835557E-1,-5.929701328E-1,-9.353151321E-1,1.181104073E0
2.223153717E1,-3.927721381E-1,-6.323587894E-1,-5.055408478E-1,8.998439531E-1
2.224851488E1,-3.301664591E-1,-6.358482838E-1,-3.297681808E-1,7.887077937E-1
2.226551224E1,-1.690244675E-1,-5.567605495E-1,-3.321695328E-1,6.699911780E-1
2.228249606E1,1.626101732E-1,-5.320188999E-1,-3.238868713E-1,6.437304434E-1
2.229949976E1,5.276275873E-1,-5.328538418E-1,7.732200623E-2,7.538585943E-1
2.231649367E1,6.930575371E-1,-3.838515282E-1,4.539470673E-1,9.130929226E-1
2.233348812E1,5.849355459E-1,-1.036481857E-1,1.131877899E-1,6.047346650E-1
2.235048216E1,7.693675756E-1,-9.590458870E-2,-1.943416595E-1,7.993077237E-1
2.236746016E1,1.315111160E0,-1.971182823E-1,4.023799896E-1,1.389346119E0
2.238448602E1,1.474081755E0,-5.803732872E-1,1.467639923E0,2.159564103E0
2.240145979E1,1.037293792E0,-9.159449339E-1,2.410312653E0,2.779305779E0
2.241847140E1,-1.328823566E-1,-7.631502151E-1,2.169892311E0,2.304015758E0
2.243546758E1,-9.150096178E-1,-4.085475206E-1,6.259880066E-1,1.181530644E0
2.245245814E1,-1.116659045E0,6.951212883E-2,-3.262252808E-1,1.165410783E0
2.246943891E1,-1.046220422E0,3.678233624E-1,-1.044527054E0,1.523452645E0
2.248644632E1,-5.356554985E-1,2.797780037E-1,-1.148715973E0,1.297979557E0
2.250343995E1,1.370565891E-1,1.083278656E-1,-5.138492584E-1,5.427342770E-1
2.252043347E1,5.192573071E-1,-7.725238800E-2,1.467924118E-1,5.451092501E-1
2.253742363E1,7.189533710E-1,-1.840684414E-1,5.045652390E-1,8.974192004E-1
2.255442039E1,4.993219376E-1,-2.006349564E-1,5.032825470E-1,7.367971940E-1
2.257142055E1,-1.042413712E-2,-1.133024693E-1,-9.774684906E-2,1.500018622E-1
2.258840197E1,-4.049789906E-1,1.371741295E-2,-9.329385757E-1,1.017138406E0
2.260539539E1,-6.964223385E-1,1.612946987E-1,-1.533392429E0,1.691836989E0
2.262239416E1,-9.103069305E-1,2.566881180E-1,-1.791465282E0,2.025807334E0
2.263939108E1,-1.088646412E0,2.932162285E-1,-1.878099442E0,2.190521463E0
2.265637763E1,-1.153942466E0,2.385284901E-1,-1.658547878E0,2.034517171E0
2.267338653E1,-1.209528565E0,1.485946178E-1,-1.136229515E0,1.666150420E0
2.269037836E1,-1.342721939E0,8.781123161E-2,-3.494071960E-1,1.390215238E0
2.270736143E1,-1.649044991E0,1.068718433E-1,1.183128357E-1,1.656734408E0
2.272436034E1,-1.923773050E0,1.810526848E-1,2.198686600E-1,1.944742927E0
2.274135486E1,-2.112664223E0,3.657732010E-1,2.586488724E-1,2.159638718E0
2.275834527E1,-2.117325306E0,4.723567963E-1,3.688488007E-1,2.200508312E0
2.277531871E1,-2.003179073E0,5.286436081E-1,6.942358017E-1,2.184983710E0
2.279232292E1,-2.120235682E0,7.488441467E-1,9.892044067E-1,2.456561064E0
2.280931695E1,-2.177071810E0,8.670668602E-1,1.195155144E0,2.630559336E0
2.282631098E1,-1.319597363E0,6.367896795E-1,2.071138382E0,2.537016455E0
2.284330459E1,-4.516808987E-1,3.042118549E-1,3.822103500E0,3.860704036E0
2.286029862E1,-1.945745945E-2,-2.400078773E-1,4.982017517E0,4.987833289E0
2.287729574E1,-1.013203859E-1,-5.944822431E-1,4.988097191E0,5.024419224E0
2.289429997E1,-7.951359749E-1,-4.769421816E-1,3.532707214E0,3.652360240E0
2.291128727E1,-1.262684822E0,-2.126342058E-1,1.385118484E0,1.886303126E0
2.292827420E1,-1.378182411E0,1.045750380E-1,-4.730768204E-1,1.460864256E0
2.294528148E1,-1.267669439E0,2.760751247E-1,-1.495634079E0,1.979930448E0
2.296227585E1,-8.270297647E-1,3.307754993E-1,-1.516802788E0,1.759000102E0
2.297927207E1,-1.153190732E-1,1.352617741E-1,-9.460935593E-1,9.626459677E-1
2.299626595E1,4.536417723E-1,-7.041311264E-2,-4.439287186E-1,6.386090910E-1
2.301325713E1,7.619316578E-1,-3.597620726E-1,-1.388559341E-1,8.539611059E-1
2.303025102E1,6.042931080E-1,-5.578237772E-1,1.573181152E-2,8.225478811E-1
2.304722674E1,1.834006310E-1,-6.640886068E-1,2.039461136E-1,7.185008604E-1
2.306423568E1,-1.743234396E-1,-7.628301382E-1,8.474063873E-2,7.870701730E-1
2.308123551E1,-3.594911695E-1,-7.270885706E-1,-1.571340561E-1,8.261856946E-1
2.309822530E1,-4.142342806E-1,-6.695609093E-1,-7.281684875E-1,1.072441699E0
2.311521844E1,-4.222266078E-1,-5.814310312E-1,-1.386755943E0,1.561867279E0
2.313221731E1,-6.172517538E-1,-5.112155676E-1,-1.986705780E0,2.142274712E0
2.314920770E1,-6.347313523E-1,-4.878637791E-1,-2.146796227E0,2.291206886E0
2.316618922E1,-3.711295128E-1,-5.260875225E-1,-2.058737755E0,2.157059651E0
2.318319589E1,-1.254988909E-1,-5.596072674E-1,-1.657247543E0,1.753676049E0
2.320018964E1,-1.978552341E-1,-6.278243065E-1,-1.149539948E0,1.324670580E0
2.321717125E1,-3.771078587E-1,-7.162693739E-1,-7.283725739E-1,1.088934690E0
2.323417416E1,-3.362610340E-1,-7.180604935E-1,-4.434566498E-1,9.084801349E-1
2.325117985E1,-8.886158466E-2,-8.045064211E-1,-2.226285934E-1,8.394584286E-1
2.326813875E1,3.981995583E-2,-8.461259604E-1,-1.316156387E-1,8.572266013E-1
2.328514678E1,-2.113204002E-1,-7.444771528E-1,-1.299800873E-1,7.847275742E-1
2.330213979E1,-4.589515924E-1,-6.498986483E-1,-1.957502365E-1,8.193430126E-1
2.331913380E1,-1.939032078E-1,-8.796930313E-1,6.937026978E-3,9.008365033E-1
2.333612791E1,-7.290244102E-3,-1.075732589E0,1.254025459E0,1.652220809E0
2.335312173E1,-9.392476082E-2,-1.378116846E0,2.640661240E0,2.980120750E0
2.337013243E1,-5.887989998E-1,-1.547760725E0,3.581294060E0,3.945619681E0
2.338712281E1,-1.405753493E0,-1.242286325E0,3.322582245E0,3.815621964E0
2.340410386E1,-1.837605715E0,-6.717956066E-1,1.606431007E0,2.531545907E0
2.342109554E1,-1.704475760E0,-1.371775866E-1,-1.084461212E-1,1.713422268E0
2.343810662E1,-1.232508779E0,2.778127193E-1,-1.426658630E0,1.905679051E0
2.345509850E1,-6.347768307E-1,4.793757200E-1,-1.896370888E0,2.056444808E0
2.347209326E1,1.075829268E-1,3.585231304E-1,-1.415015221E0,1.463687465E0
2.348908924E1,8.293751478E-1,1.098510027E-1,-4.776363373E-1,9.633622628E-1
2.350608054E1,1.528545976E0,-1.762700081E-1,6.287250519E-1,1.662173007E0
2.352306093E1,1.654971480E0,-2.816983461E-1,1.766688347E0,2.437103255E0
2.354006129E1,8.701275587E-1,-2.884573936E-1,1.772649765E0,1.995649475E0
2.355706821E1,4.770040512E-3,-1.855555773E-1,9.091520309E-1,9.279068062E-1
2.357405621E1,-1.216856241E-1,-3.988039494E-2,7.470226288E-2,1.482506833E-1
2.359105003E1,1.284681559E-1,1.044881344E-1,-7.313404083E-1,7.498537392E-1
2.360802664E1,3.029953241E-1,1.629712582E-1,-1.375314713E0,1.417694028E0
2.362502222E1,3.098292351E-1,2.360167503E-1,-1.895401955E0,1.935005589E0
2.364202052E1,3.966586590E-1,2.884349823E-1,-2.227856636E0,2.281201004E0
2.365900236E1,4.545490742E-1,3.332769871E-1,-2.075816631E0,2.150977243E0
2.367600679E1,3.248114586E-1,2.955284119E-1,-1.789856434E0,1.842939386E0
2.369300133E1,-6.991481781E-2,2.609591484E-1,-1.532380581E0,1.556013497E0
2.371000631E1,-5.110653043E-1,3.032898903E-1,-1.230575562E0,1.366560908E0
2.372700463E1,-7.845786810E-1,3.501675129E-1,-1.031238556E0,1.342249587E0
2.374399501E1,-9.321266413E-1,4.087705612E-1,-8.986635208E-1,1.357773755E0
2.376097224E1,-9.130796194E-1,5.196437836E-1,-8.585863113E-1,1.356803047E0
2.377797082E1,-8.511835337E-1,5.602772236E-1,-4.709949493E-1,1.122613120E0
2.379496159E1,-1.091296196E0,8.262654543E-1,-1.151847839E-1,1.373648253E0
2.381195708E1,-8.022797108E-1,7.475111485E-1,2.715787888E-1,1.129681676E0
2.382894869E1,-1.446406245E-1,3.437398672E-1,1.727097511E0,1.766902323E0
2.384594596E1,1.235237122E-1,-2.303529978E-1,3.915228844E0,3.923944127E0
2.386295589E1,8.478742838E-2,-9.936145544E-1,5.656756401E0,5.743983963E0
2.387993315E1,-7.240449190E-1,-1.167570233E0,6.128390312E0,6.280495929E0
2.389693956E1,-1.873896360E0,-6.805127859E-1,4.730222702E0,5.133185369E0
2.391393407E1,-2.039806366E0,-2.557231784E-1,2.595390320E0,3.310929668E0
2.393093006E1,-1.789779186E0,1.686786413E-1,7.065601349E-1,1.931576880E0
2.394792192E1,-9.291353226E-1,2.903705835E-1,-3.398656845E-1,1.031075267E0
2.396491496E1,1.586257219E-1,1.905827522E-1,-3.866138458E-1,4.592974754E-1
2.398189655E1,7.244911194E-1,3.122317791E-2,1.248435974E-1,7.358316334E-1
2.399889983E1,9.495862722E-1,-1.133173704E-1,3.942604065E-1,1.034406198E0
2.401590025E1,1.027021170E0,-2.433654070E-1,4.831295013E-1,1.160781340E0
2.403289116E1,6.991579533E-1,-2.874954939E-1,3.374977112E-1,8.278769279E-1
2.404987242E1,2.533205748E-1,-3.107506037E-1,-2.577934265E-1,4.766494540E-1
2.406687929E1,-2.346098423E-2,-2.718133926E-1,-7.510023117E-1,7.990227846E-1
2.408387205E1,-8.352243900E-2,-2.437750101E-1,-1.253390312E0,1.279605224E0
2.410086640E1,5.206668377E-2,-2.903540134E-1,-1.928020000E0,1.950455720E0
2.411786086E1,5.987548828E-2,-2.953600883E-1,-2.214781284E0,2.235190997E0
2.413486394E1,2.635880709E-1,-3.230495453E-1,-2.381757259E0,2.417975873E0
2.415184876E1,4.220105410E-1,-3.788514137E-1,-2.163355827E0,2.236454723E0
2.416883936E1,4.187752008E-1,-4.874250889E-1,-1.710986137E0,1.827684176E0
2.418584330E1,3.664020300E-1,-6.456363201E-1,-1.229430199E0,1.436173847E0
2.420282993E1,3.453785181E-1,-7.884159088E-1,-6.669044495E-1,1.088874424E0
2.421982324E1,2.312932014E-1,-8.546389341E-1,-3.669319153E-1,9.584066377E-1
2.423681826E1,7.602441311E-2,-9.273567200E-1,-5.090084076E-1,1.060594058E0
2.425379564E1,1.020927429E-1,-9.356108904E-1,-5.348691940E-1,1.082532088E0
2.427079220E1,2.637541294E-1,-9.502956867E-1,-2.998428345E-1,1.030792830E0
2.428778641E1,1.807913780E-1,-8.285402060E-1,-6.982135773E-2,8.509050577E-1
2.430477956E1,-1.754152775E-1,-4.796355963E-1,-9.816646576E-2,5.200552661E-1
2.432176428E1,-1.697082520E-1,-3.720983267E-1,-1.780900955E-1,4.460651719E-1
2.433876795E1,3.305495977E-1,-3.534467220E-1,4.266862869E-1,6.451734723E-1
2.435577833E1,7.578830719E-1,-6.084836721E-1,1.503439903E0,1.790243188E0
2.437275646E1,8.045392036E-1,-1.025582314E0,2.648177147E0,2.951600348E0
2.438976219E1,2.782793045E-1,-1.073831677E0,3.149782181E0,3.339413366E0
2.440675756E1,-5.720597506E-1,-7.859048843E-1,2.222084999E0,2.425399058E0
2.442373491E1,-6.756078005E-1,-5.209940076E-1,3.788261414E-1,9.334826733E-1
2.444074731E1,-3.222955465E-1,4.154980183E-2,-7.121038437E-1,7.827468873E-1
2.445773992E1,4.744300842E-1,2.609077692E-1,-1.502568245E0,1.597143732E0
2.447472903E1,1.886314511E0,3.153524399E-1,-1.607985020E0,2.498648719E0
2.449172959E1,2.968470812E0,2.910590172E-1,-1.468910694E0,3.324790661E0
2.450869563E1,3.405618429E0,9.486389160E-2,-1.210432053E0,3.615574892E0
2.452571084E1,3.086992025E0,-8.644497395E-2,-9.724874496E-1,3.237703559E0
2.454269678E1,1.952728510E0,-2.378375530E-1,-4.913444519E-1,2.027593328E0
2.455968916E1,8.968753815E-1,-3.216024637E-1,-2.366180420E-1,9.817340232E-1
2.457669602E1,4.819015265E-1,-2.276010513E-1,-3.230886459E-1,6.232315724E-1
2.459369005E1,2.181650400E-1,-3.001141548E-2,-8.884878159E-1,9.153727485E-1
2.461067050E1,-7.806956768E-2,1.462655067E-1,-1.751742840E0,1.759571378E0
2.462767458E1,-3.291386366E-1,3.079532385E-1,-2.362166405E0,2.404786386E0
2.464467478E1,-6.165342331E-1,4.772073030E-1,-2.483933449E0,2.603414421E0
2.466166243E1,-8.341332078E-1,6.240664721E-1,-2.404609680E0,2.620569572E0
2.467865404E1,-1.140822411E0,7.330235243E-1,-1.819612026E0,2.269314254E0
2.469565634E1,-1.509648561E0,8.385411501E-1,-1.039443016E0,2.015597138E0
2.471264715E1,-1.881587029E0,9.960018396E-1,-4.868984222E-1,2.183909221E0
2.472964100E1,-2.057325840E0,1.105756521E0,-1.373291016E-1,2.339689376E0
2.474661631E1,-2.025971889E0,1.162168145E0,2.704315186E-1,2.351240120E0
2.476360849E1,-1.987325191E0,1.151982546E0,6.217365265E-1,2.379722990E0
2.478060970E1,-2.188666821E0,1.355435014E0,1.017953873E0,2.768338241E0
2.479760376E1,-1.479694605E0,1.114625931E0,1.838620186E0,2.610059631E0
2.481459708E1,-3.310075998E-1,3.450262547E-1,3.464170456E0,3.497011023E0
2.483159138E1,8.678913116E-2,-4.358090758E-1,5.674532890E0,5.691905255E0
2.484860058E1,-3.583312631E-1,-9.289457202E-1,6.471361160E0,6.547507672E0
2.486559425E1,-9.643799663E-1,-1.194352508E0,5.969146729E0,6.163377264E0
2.488257312E1,-1.255425334E0,-1.113247991E0,4.479882240E0,4.783801704E0
2.489958004E1,-1.321727753E0,-7.382953167E-1,2.592040062E0,3.001785454E0
2.491657400E1,-1.356366038E0,-4.537743926E-1,6.064252853E-1,1.553509464E0
2.493355592E1,-1.230917811E0,-1.837793589E-1,-7.698278427E-1,1.463409860E0
2.495054845E1,-7.644901872E-1,-1.876139641E-1,-1.346764565E0,1.559941998E0
2.496753964E1,-2.642887831E-1,-4.096436501E-1,-8.758039474E-1,1.002341776E0
2.498453903E1,-1.907752752E-1,-6.985273361E-1,-4.518413544E-2,7.255186083E-1
2.500153399E1,-5.284451842E-1,-1.032396078E0,4.098300934E-1,1.230063690E0
2.501853492E1,-9.246588945E-1,-1.198866725E0,6.384191513E-1,1.643123400E0
2.503553450E1,-1.139857292E0,-1.264147282E0,3.975648880E-1,1.747970491E0
2.505251551E1,-1.186493993E0,-1.261507034E0,-7.410240173E-2,1.733395269E0
2.506951935E1,-1.200426102E0,-1.219348192E0,-5.754146576E-1,1.805252023E0
2.508651284E1,-1.237607837E0,-1.164546251E0,-1.159923553E0,2.057489679E0
2.510350694E1,-1.355354428E0,-1.129812241E0,-1.636214733E0,2.406379018E0
2.512050218E1,-1.507212996E0,-1.097884655E0,-1.987234116E0,2.725094707E0
2.513748675E1,-1.504912257E0,-1.172851682E0,-1.951950550E0,2.729551780E0
2.515449544E1,-1.413918495E0,-1.252227068E0,-1.723549366E0,2.556924042E0
2.517148367E1,-1.267587543E0,-1.392325521E0,-1.286974907E0,2.280713253E0
2.518845452E1,-1.185586333E0,-1.431086183E0,-8.182220459E-1,2.030544245E0
2.520547075E1,-1.192523718E0,-1.426809072E0,-7.312841415E-1,1.998167521E0
2.522243440E1,-1.236557364E0,-1.352502942E0,-8.051567078E-1,2.001653229E0
2.523943250E1,-1.212110639E0,-1.280351043E0,-8.819513321E-1,1.971382547E0
2.525644143E1,-1.014252424E0,-1.219485283E0,-8.096256256E-1,1.780827333E0
2.527343306E1,-9.602732658E-1,-1.142552733E0,-5.900182724E-1,1.604890356E0
2.529042402E1,-1.353255153E0,-7.969790697E-1,-5.881938934E-1,1.677035242E0
2.530742319E1,-1.393085718E0,-6.844412088E-1,-6.085491180E-1,1.667177140E0
2.532441460E1,-7.218012810E-1,-8.982926607E-1,1.539430618E-1,1.162594194E0
2.534143065E1,-2.641344070E-1,-1.321543694E0,1.875008583E0,2.309091143E0
2.535840009E1,-3.236837387E-1,-1.747301817E0,3.266736984E0,3.718790842E0
2.537539940E1,-1.144761801E0,-1.699243784E0,3.554100990E0,4.102382584E0
2.539239937E1,-2.128385067E0,-1.194041729E0,2.309409142E0,3.359929944E0
2.540937302E1,-2.286948442E0,-6.104999781E-1,6.132621765E-1,2.445185862E0
2.542636808E1,-2.199822903E0,8.467161655E-2,-3.886871338E-1,2.235501683E0
2.544336242E1,-1.667039990E0,3.107700348E-1,-8.178882599E-1,1.882695289E0
2.546035686E1,-7.071456909E-1,2.375440598E-1,-1.517839432E-1,7.612624869E-1
2.547735105E1,4.794859886E-2,2.399594784E-1,1.027654648E0,1.056387095E0
2.549434456E1,7.825670242E-1,1.293540001E-1,1.745010376E0,1.916821540E0
2.551133836E1,8.330426216E-1,1.696734428E-1,1.987286568E0,2.161494157E0
2.552833669E1,9.539055824E-2,3.515393734E-1,1.295963287E0,1.346179829E0
2.554532662E1,-6.964263916E-1,5.380599499E-1,3.093061447E-1,9.328389570E-1
2.556231880E1,-9.513515234E-1,6.451126337E-1,-2.644557953E-1,1.179481623E0
2.557931367E1,-1.147617698E0,7.438172102E-1,-8.239479065E-1,1.596615350E0
2.559630781E1,-1.420666099E0,6.150149107E-1,-1.247006416E0,1.987853241E0
2.561330296E1,-1.653395891E0,5.122801065E-1,-1.370249748E0,2.207653336E0
2.563030749E1,-1.856564283E0,3.175145388E-1,-1.023437500E0,2.143611611E0
2.564729880E1,-2.114634275E0,1.666412354E-1,-5.572013855E-1,2.193153165E0
2.566429283E1,-2.384777784E0,-1.314308643E-1,-1.354990005E-1,2.392237265E0
2.568128681E1,-2.661663055E0,-3.195253611E-1,1.216983795E-1,2.683534455E0
2.569827785E1,-2.759610176E0,-5.725780725E-1,1.850366592E-1,2.824452609E0
2.571527689E1,-2.711113930E0,-9.102787375E-1,5.603694916E-1,2.914234048E0
2.573226892E1,-2.588091612E0,-1.348692417E0,1.123018265E0,3.127036848E0
2.574926247E1,-2.663893700E0,-1.668801069E0,1.645827293E0,3.548235355E0
2.576625619E1,-2.880726337E0,-1.753047824E0,1.587443352E0,3.727162097E0
2.578325010E1,-2.935516357E0,-1.755400896E0,9.991750717E-1,3.563290532E0
2.580024404E1,-2.665600300E0,-1.544316530E0,7.871160507E-1,3.179605350E0
2.581723338E1,-2.294094563E0,-1.882467031E0,6.303625107E-1,3.033794469E0
2.583424794E1,-2.097885132E0,-1.990331411E0,1.226284027E0,3.141068874E0
2.585123827E1,-1.764060259E0,-2.292524815E0,2.091384888E0,3.569519487E0
2.586823315E1,-1.595839977E0,-2.559456587E0,2.577400208E0,3.967431799E0
2.588522720E1,-1.629350305E0,-2.635155916E0,2.512639999E0,3.989008509E0
2.590222018E1,-1.759460688E0,-2.589779377E0,2.000377655E0,3.715396331E0
2.591921501E1,-1.575319290E0,-2.543951988E0,1.705884933E0,3.444323735E0
2.593619571E1,-1.210731626E0,-2.498522043E0,1.548014641E0,3.178809966E0
2.595320227E1,-9.051795006E-1,-2.484356403E0,1.158229828E0,2.886671613E0
2.597019588E1,-8.053855300E-1,-2.380848885E0,7.076492310E-1,2.611102200E0
2.598718975E1,-7.406612635E-1,-2.257844448E0,4.115724564E-1,2.411603729E0
2.600420003E1,-6.223614216E-1,-2.077173233E0,7.495880127E-4,2.168405622E0
2.602117813E1,-6.325117350E-1,-1.840132475E0,-4.963750839E-1,2.008120226E0
2.603817531E1,-5.879278779E-1,-1.604262233E0,-9.709100723E-1,1.965192833E0
2.605514878E1,-5.165024400E-1,-1.309877396E0,-1.458572388E0,2.027310280E0
2.607216310E1,-5.064441562E-1,-9.411893487E-1,-1.795276642E0,2.089339918E0
2.608915000E1,-6.008067727E-1,-6.676682234E-1,-2.069591999E0,2.256094120E0
2.610613458E1,-7.755492926E-1,-4.016001225E-1,-2.312724590E0,2.472135594E0
2.612314156E1,-8.691369295E-1,-3.169177771E-1,-2.218775749E0,2.403913831E0
2.614013527E1,-9.323226213E-1,-3.646591902E-1,-1.530730247E0,1.829026212E0
2.615712812E1,-9.509547949E-1,-4.250435829E-1,-6.706104279E-1,1.238828243E0
2.617412416E1,-1.063711643E0,-4.464169741E-1,-4.460334778E-2,1.154452265E0
2.619111557E1,-1.122869492E0,-4.067690372E-1,2.518196106E-1,1.220536792E0
2.620810095E1,-1.145262957E0,-2.722970247E-1,4.230022430E-1,1.250881212E0
2.622507030E1,-1.121146679E0,-8.043360710E-2,5.493249893E-1,1.251078489E0
2.624208285E1,-8.995199203E-1,1.255238056E-1,6.308107376E-1,1.105809432E0
2.625908181E1,-2.828800678E-1,-1.654729843E-1,1.310585022E0,1.350938763E0
2.627606301E1,1.375851631E-1,-6.926285028E-1,2.829558372E0,2.916344373E0
2.629306750E1,1.149997711E-1,-1.299999952E0,4.231033325E0,4.427738455E0
2.631006083E1,-7.290515900E-1,-1.595093608E0,4.191507339E0,4.543630004E0
2.632707110E1,-1.552877784E0,-1.444429398E0,2.962202072E0,3.643136947E0
2.634406214E1,-1.477349281E0,-1.113471508E0,1.065508842E0,2.134874421E0
2.636105572E1,-1.311034560E0,-5.992032290E-1,-5.440778732E-1,1.540739063E0
2.637805013E1,-1.320116520E0,-3.057194948E-1,-1.814580917E0,2.264702175E0
2.639504470E1,-1.210459232E0,-1.567882299E-1,-2.432127476E0,2.721219976E0
2.641203664E1,-7.764376402E-1,-3.442606926E-1,-1.918161869E0,2.097788309E0
2.642901967E1,-1.048440933E-1,-6.126220822E-1,-3.583192825E-1,7.174195479E-1
2.644602275E1,4.399657249E-1,-9.137413502E-1,1.074127197E0,1.477241460E0
2.646302312E1,3.940708637E-1,-1.048374414E0,2.255657196E0,2.518406271E0
2.648000010E1,-4.082980156E-1,-9.239972830E-1,2.103662491E0,2.333639673E0
2.649700766E1,-9.620823264E-1,-7.116153240E-1,9.508190155E-1,1.528416034E0
2.651400070E1,-8.195093274E-1,-4.241216183E-1,1.836147308E-1,9.408448619E-1
2.653099538E1,-5.317763090E-1,-2.288839817E-1,-3.716402054E-1,6.879610179E-1
2.654798928E1,-3.494677544E-1,-1.229567528E-1,-8.187398911E-1,8.986551528E-1
2.656498128E1,-3.118355274E-1,-4.610311985E-2,-1.048608780E0,1.094964505E0
2.658197178E1,-1.966634989E-1,-4.229068756E-2,-8.434381485E-1,8.670945418E-1
2.659897062E1,-1.786893606E-1,-2.105116844E-2,-4.253110886E-1,4.618035961E-1
2.661596393E1,-3.153046370E-1,-2.183902264E-2,-1.185827255E-1,3.375734287E-1
2.663293979E1,-4.983925819E-1,-9.037399292E-2,8.481788635E-2,5.135724858E-1
2.664995181E1,-7.891553044E-1,-1.058511734E-1,-3.214931488E-2,7.968714726E-1
2.666694661E1,-1.083462358E0,-1.525111198E-1,-2.249221802E-1,1.117022967E0
2.668394152E1,-1.371140599E0,-2.701413631E-1,-3.138084412E-1,1.432298376E0
2.670091864E1,-1.711850762E0,-3.837089539E-1,-1.965646744E-1,1.765305431E0
2.671791385E1,-2.168751478E0,-3.614467382E-1,-9.936141968E-2,2.200908769E0
2.673490928E1,-2.376452446E0,-3.791859150E-1,-1.289463043E-2,2.406548245E0
2.675190295E1,-2.051429749E0,-5.502744913E-1,5.427932739E-2,2.124644035E0
2.676889685E1,-1.485361814E0,-9.290854931E-1,9.343051910E-1,1.985554271E0
2.678589060E1,-1.134626627E0,-1.333937883E0,2.592119217E0,3.128234309E0
2.680287688E1,-1.244988799E0,-1.828401566E0,3.636943817E0,4.256807457E0
2.681989189E1,-1.677593350E0,-1.961636066E0,3.557619095E0,4.395337203E0
2.683688893E1,-1.942881823E0,-1.742696285E0,2.274876595E0,3.462202137E0
2.685384998E1,-1.859198093E0,-1.327602386E0,6.722841263E-1,2.381409581E0
2.687087306E1,-1.917003751E0,-9.407079220E-1,-5.523738861E-1,2.205663548E0
2.688786751E1,-1.811989069E0,-6.516427994E-1,-1.235808372E0,2.288048308E0
2.690486003E1,-1.198184371E0,-5.908210874E-1,-1.225999832E0,1.813226663E0
2.692184185E1,-4.665861130E-1,-6.480618119E-1,-4.656066895E-1,9.243788737E-1
2.693884850E1,-5.962848663E-2,-7.962999940E-1,2.774620056E-1,8.453605156E-1
2.695583956E1,-6.374371052E-2,-1.049554586E0,9.811277390E-1,1.438137591E0
2.697284043E1,-3.619744778E-1,-1.250539541E0,1.614724159E0,2.074176650E0
2.698982998E1,-7.896433473E-1,-1.316118717E0,1.717563629E0,2.303417008E0
2.700682485E1,-1.018178463E0,-1.268896341E0,1.081486702E0,1.953560543E0
2.702381897E1,-1.029659867E0,-1.107811928E0,1.259431839E-1,1.517665442E0
2.704081426E1,-9.206725955E-1,-9.749063849E-1,-7.465658188E-1,1.534744607E0
2.705782326E1,-8.685332537E-1,-8.639186621E-1,-1.245588303E0,1.747053430E0
2.707479851E1,-9.376795888E-1,-8.653639555E-1,-1.496796608E0,1.966849733E0
2.709179457E1,-1.024433136E0,-8.861109018E-1,-1.439342499E0,1.976452026E0
2.710875916E1,-1.024480820E0,-1.028170705E0,-1.038760185E0,1.784858165E0
2.712577825E1,-9.107460976E-1,-1.186147690E0,-3.731374741E-1,1.541309953E0
2.714276729E1,-6.794800758E-1,-1.245317936E0,2.106781006E-1,1.434187992E0
2.715975603E1,-6.036686897E-1,-1.243023157E0,2.529668808E-1,1.404818386E0
2.717676521E1,-5.083671808E-1,-1.157079697E0,1.171321869E-1,1.269248031E0
2.719375764E1,-2.912997007E-1,-1.039338231E0,1.298904419E-2,1.079466623E0
2.721072107E1,-1.673541069E-1,-9.515969753E-1,5.845451355E-2,9.679675256E-1
2.722773240E1,-3.109871149E-1,-7.506737709E-1,1.354494095E-1,8.237539915E-1
2.724472654E1,-3.164806366E-1,-6.327638626E-1,-2.355451584E-1,7.456752784E-1
2.726172430E1,5.443644524E-2,-7.579840422E-1,-1.092214584E-1,7.677450500E-1
2.727870378E1,5.242297649E-1,-1.023176193E0,9.587459564E-1,1.496963653E0
2.729570924E1,2.816004753E-1,-1.165336132E0,1.922334671E0,2.265541374E0
2.731271682E1,-4.047173262E-1,-1.062432766E0,1.879992485E0,2.197027820E0
2.732970568E1,-1.257236600E0,-5.998600721E-1,6.731987000E-2,1.394635414E0
2.734670461E1,-1.504690289E0,-1.035743952E-1,-1.326069832E0,2.008303195E0
2.736369967E1,-1.473645210E0,3.429251909E-1,-2.081140995E0,2.573009082E0
2.738069011E1,-1.067552090E0,3.772311211E-1,-2.131299019E0,2.413380677E0
2.739768781E1,-1.490314007E-1,2.627831697E-1,-1.359376907E0,1.392541177E0
2.741464862E1,7.419326305E-1,2.108409405E-1,1.230077744E-1,7.810562355E-1
2.743167258E1,1.397130489E0,2.298927307E-2,1.638181686E0,2.153170070E0
2.744866658E1,1.162559032E0,-2.557992935E-3,2.549480438E0,2.802035073E0
2.746566002E1,9.660530090E-2,1.011625528E-1,2.052956581E0,2.057716494E0
2.748264124E1,-4.210270643E-1,2.406624556E-1,9.459133148E-1,1.062983634E0
2.749964759E1,-3.495779037E-1,4.385889769E-1,1.714859009E-1,5.864916160E-1
2.751663104E1,-3.533316851E-1,4.930551052E-1,-6.571369171E-1,8.943017076E-1
2.753363635E1,-5.440694094E-1,5.018955469E-1,-1.394671440E0,1.578929729E0
2.755061671E1,-7.340154648E-1,4.106346369E-1,-1.779181004E0,1.967964571E0
2.756762093E1,-8.527939320E-1,3.817402124E-1,-1.654580593E0,1.900163156E0
2.758462057E1,-8.643054962E-1,1.415147781E-1,-1.182588577E0,1.471586276E0
2.760161258E1,-8.894432783E-1,-1.166558266E-2,-3.550186157E-1,9.577492619E-1
2.761860209E1,-9.865435362E-1,-1.122889519E-1,7.625961304E-2,9.958375802E-1
2.763560220E1,-1.123932123E0,-2.212512493E-1,1.853599548E-1,1.160402450E0
2.765259314E1,-1.095401525E0,-3.063877821E-1,3.473358154E-1,1.189293969E0
2.766958706E1,-9.522393942E-1,-3.696122169E-1,6.415987015E-1,1.206242906E0
2.768658099E1,-1.027436972E0,-4.548683167E-1,7.640800476E-1,1.358804708E0
2.770355811E1,-1.513389945E0,-2.064524889E-1,5.258302689E-1,1.615385164E0
2.772055578E1,-1.724074125E0,-3.457319736E-2,1.210460663E-1,1.728663948E0
2.773755189E1,-8.806471825E-1,-1.041383743E-1,5.510253906E-1,1.044036993E0
2.775454397E1,-1.438713074E-1,-3.800873756E-1,1.891750336E0,1.934912065E0
2.777153716E1,2.598497868E-1,-7.001785636E-1,3.312252998E0,3.395407466E0
2.778851864E1,2.806358337E-1,-9.513661861E-1,3.667936325E0,3.799685642E0
2.780555007E1,-1.280971766E-1,-8.189105988E-1,2.897654533E0,3.013872136E0
2.782251587E1,-6.215914488E-1,-2.855380774E-1,1.069055557E0,1.269168116E0
2.783952755E1,-6.159771085E-1,1.241625547E-1,-3.346319199E-1,7.119147842E-1
2.785651875E1,-4.257153273E-1,6.227170229E-1,-1.140643120E0,1.367507498E0
2.787351346E1,-1.802880764E-1,6.322898865E-1,-1.516607285E0,1.652994842E0
2.789050735E1,1.151887178E-1,4.400593042E-1,-1.311025620E0,1.387699105E0
2.790748898E1,3.688554764E-1,2.298842669E-1,-6.748065948E-1,8.026612480E-1
2.792449574E1,5.461835861E-1,8.847045898E-2,2.139759064E-2,5.537159820E-1
2.794147319E1,6.615231037E-1,-9.667026997E-2,3.433780670E-1,7.515759807E-1
2.795846340E1,5.166063309E-1,-2.053588629E-1,5.497694016E-1,7.818572495E-1
2.797547695E1,1.473511457E-1,-2.383593321E-1,2.432022095E-1,3.710456118E-1
2.799247458E1,6.692767143E-3,-1.353577375E-1,-3.233661652E-1,3.506168664E-1
2.800946407E1,1.022409201E-1,-5.483806133E-2,-1.057394981E0,1.063740836E0
2.802645940E1,2.039577961E-1,8.981800079E-2,-1.595802307E0,1.611288633E0
2.804345336E1,1.657640934E-1,1.280003786E-1,-1.857961178E0,1.869727673E0
2.806044697E1,8.132338524E-3,1.466928720E-1,-2.075537205E0,2.080730550E0
2.807743873E1,8.656167984E-2,8.343553543E-2,-2.166039467E0,2.169373501E0
2.809443637E1,2.933648825E-1,-8.458614349E-3,-1.845155716E0,1.868350641E0
2.811142855E1,4.511610270E-1,-9.048593044E-2,-1.226741791E0,1.310202044E0
2.812840628E1,4.963461161E-1,-1.128597260E-1,-6.805906296E-1,8.498825741E-1
2.814541610E1,4.935334921E-1,-1.438626051E-1,-3.901214600E-1,6.453421654E-1
