"Time (s)","Linear Acceleration x (m/s^2)","Linear Acceleration y (m/s^2)","Linear Acceleration z (m/s^2)","Absolute acceleration (m/s^2)"
1.003048240E-1,-1.520670578E-2,-3.737092018E-3,1.702919006E-1,1.710103540E-1
1.173090160E-1,2.801904082E-2,1.614420116E-2,-8.693218231E-2,9.275185282E-2
1.342964840E-1,-5.848228931E-3,-3.526717424E-3,2.732372284E-2,2.816425655E-2
1.512862100E-1,8.740805089E-3,1.090064645E-2,-6.175041199E-3,1.527602371E-2
1.682893330E-1,8.857656270E-3,1.132383943E-3,-4.445838928E-2,4.534632009E-2
1.852829460E-1,-1.059979573E-2,-3.582462668E-3,4.168319702E-2,4.315876067E-2
2.022778900E-1,-4.016831517E-4,5.951121449E-3,-2.052974701E-2,2.137867414E-2
2.192744620E-1,9.044136852E-3,5.855813622E-3,-3.967094421E-2,4.110803789E-2
2.362704660E-1,-8.431486785E-4,5.976945162E-3,2.732658386E-2,2.798529898E-2
2.532635890E-1,8.702792227E-3,1.086999476E-2,3.396034241E-3,1.433277458E-2
2.702658680E-1,9.125366807E-3,1.097829640E-2,-1.096439362E-2,1.800036773E-2
2.872463480E-1,-5.800776184E-3,6.250157952E-3,8.177757263E-3,1.181478703E-2
3.042517190E-1,9.079154581E-3,1.521825790E-3,-6.180763245E-3,1.108822961E-2
3.212528070E-1,4.167821258E-3,1.109907031E-2,-1.096725464E-2,1.615056563E-2
3.382338770E-1,-5.920469761E-3,1.115618646E-2,3.389358521E-3,1.307670485E-2
3.552433590E-1,3.729999065E-3,1.121315360E-2,3.388404846E-3,1.229345330E-2
3.722383230E-1,9.142499417E-3,1.547172666E-3,-6.180763245E-3,1.114364721E-2
3.892367570E-1,-5.732525140E-3,6.390064955E-3,3.390312195E-3,9.229788263E-3
4.062317230E-1,3.865770996E-3,1.113013923E-2,8.175849915E-3,1.434115430E-2
4.232330550E-1,8.678790182E-3,1.108476520E-2,-6.178855896E-3,1.537438385E-2
4.401980720E-1,9.303260595E-3,1.570880413E-3,-6.180763245E-3,1.127919134E-2
4.572105340E-1,-8.885636926E-4,1.475796103E-3,3.393173218E-3,3.805409841E-3
4.742093950E-1,-7.581450045E-4,6.216973066E-3,-6.175994873E-3,8.795933755E-3
4.912138720E-1,-6.794147193E-4,6.273716688E-3,-1.096439362E-2,1.265065424E-2
5.081898850E-1,8.969690651E-3,6.330609322E-3,-1.392364502E-3,1.106664555E-2
5.251945340E-1,1.383259147E-2,6.336733699E-3,-6.177902222E-3,1.642136586E-2
5.421871390E-1,4.938129336E-3,6.444349885E-3,-1.575279236E-2,1.772188573E-2
5.591836400E-1,-4.170574248E-4,1.123501360E-2,-1.394271851E-3,1.132887733E-2
5.761957060E-1,4.447150975E-3,6.404250860E-3,-1.392364502E-3,7.920243670E-3
5.931862870E-1,1.404420659E-2,1.124563813E-2,-1.394271851E-3,1.804572275E-2
6.101878730E-1,5.097720772E-3,1.680806279E-3,-6.178855896E-3,8.184749660E-3
6.271809370E-1,5.074050277E-3,1.585513353E-3,-1.392364502E-3,5.495317800E-3
6.441761870E-1,4.349537194E-3,1.111051440E-2,3.393173218E-3,1.240466157E-2
6.611706320E-1,8.847936988E-5,1.545712352E-3,-6.177902222E-3,6.368950552E-3
6.781710290E-1,4.251487553E-3,1.501128078E-3,8.179664612E-3,9.339991707E-3
6.951370540E-1,4.279151559E-3,6.190896034E-3,3.396034241E-3,8.256596171E-3
7.121603800E-1,4.355587065E-3,6.246984005E-3,3.395080566E-3,8.338016544E-3
7.291761160E-1,4.382088780E-3,1.416981220E-3,3.396034241E-3,5.722201187E-3
7.461678170E-1,5.004338920E-3,6.054475904E-3,-6.171226501E-3,9.989200320E-3
7.631504940E-1,1.400225237E-2,5.907341838E-3,-1.382827759E-3,1.526014324E-2
7.801460690E-1,5.057439208E-3,1.230359077E-3,-1.095676422E-2,1.213021669E-2
7.971292550E-1,4.435654730E-3,1.080574095E-2,-6.170272827E-3,1.321027393E-2
8.141352260E-1,9.247366339E-3,6.025493145E-3,8.186340332E-3,1.374178008E-2
8.311375040E-1,-2.451799810E-4,1.081475616E-2,8.186340332E-3,1.356595857E-2
8.481304150E-1,4.466034472E-3,1.086944342E-2,-6.171226501E-3,1.327306674E-2
8.651266320E-1,4.543080926E-3,1.087281108E-2,-1.385688782E-3,1.186497950E-2
8.821096840E-1,5.219098181E-3,1.308083534E-3,-6.171226501E-3,8.187435794E-3
8.991364590E-1,9.432222694E-3,1.365691423E-3,-1.386642456E-3,9.630924946E-3
9.161151070E-1,4.723247141E-3,6.206974387E-3,-1.387596130E-3,7.922185154E-3
9.331080070E-1,9.533103555E-3,1.099570096E-2,3.397941589E-3,1.494428017E-2
9.500975600E-1,1.434252411E-2,6.215050817E-3,-6.173133850E-3,1.680602380E-2
9.671002670E-1,-3.781169653E-5,1.100373268E-2,-6.173133850E-3,1.261709730E-2
9.840863110E-1,9.506646544E-3,1.438707113E-3,3.397941589E-3,1.019765727E-2
1.001082659E0,4.747897387E-3,6.280034781E-3,-1.389503479E-3,7.994503509E-3
1.018078416E0,5.270034075E-3,1.500591636E-3,-1.096153259E-2,1.225480441E-2
1.035074491E0,4.748456180E-3,1.456141472E-3,3.397941589E-3,6.017822789E-3
1.052070626E0,5.363672972E-4,1.360371709E-3,-6.171226501E-3,6.342108293E-3
1.069056446E0,4.801254719E-3,1.103645563E-2,-1.387596130E-3,1.211531357E-2
1.086076141E0,4.828013480E-3,6.204754114E-3,-6.172180176E-3,9.995223654E-3
1.103072001E0,-4.763677716E-3,6.209313869E-3,-1.387596130E-3,7.948183889E-3
1.120038848E0,-1.467764378E-6,1.099739969E-2,-1.387596130E-3,1.108459404E-2
1.137064129E0,9.492393583E-3,6.267294288E-3,-6.174087524E-3,1.294232863E-2
1.154063375E0,5.975328386E-4,6.322339177E-3,-1.096153259E-2,1.266823646E-2
1.171044038E0,-2.291053534E-5,6.275787950E-3,-6.174087524E-3,8.803714900E-3
1.188052634E0,9.520817548E-3,-3.287106752E-3,8.181571960E-3,1.297648478E-2
1.205049064E0,7.992610335E-5,6.237566471E-3,-1.387596130E-3,6.390543536E-3
1.222018689E0,4.891812801E-3,6.140351295E-3,-6.171226501E-3,9.985879183E-3
1.239041313E0,9.649418294E-3,6.144449115E-3,3.399848938E-3,1.193417367E-2
1.256038954E0,-4.726633430E-3,6.098017097E-3,-6.170272827E-3,9.879227847E-3
1.273030633E0,5.417875946E-3,6.153076887E-3,-6.171226501E-3,1.026147024E-2
1.290045892E0,6.085783243E-4,6.156831980E-3,-6.171226501E-3,8.738477221E-3
1.307025049E0,8.759275079E-5,1.427963376E-3,-1.387596130E-3,1.993031589E-3
1.324021947E0,5.001127720E-3,1.434475183E-3,-1.386642456E-3,5.384401065E-3
1.341004674E0,1.432225108E-4,1.100769639E-2,-6.173133850E-3,1.262131031E-2
1.358010849E0,5.005925894E-3,6.175026298E-3,-6.171226501E-3,1.006351233E-2
1.375013068E0,9.864907712E-3,6.127819419E-3,-6.169319153E-3,1.315017391E-2
1.392005815E0,5.154207349E-3,6.131291389E-3,3.400802612E-3,8.701956441E-3
1.409002703E0,5.826797336E-3,1.351371408E-3,-6.169319153E-3,8.592919800E-3
1.425997597E0,4.723407328E-4,-3.526851535E-3,3.403663635E-3,4.924095212E-3
1.442994596E0,5.880635232E-3,1.112252474E-3,-1.095104218E-2,1.247975565E-2
1.459986326E0,5.306143314E-3,5.748659372E-3,-1.375198364E-3,7.943136156E-3
1.476971861E0,5.382455885E-3,5.803450942E-3,-1.375198364E-3,8.033806367E-3
1.493971709E0,5.408067256E-3,5.807250738E-3,-1.376152039E-3,8.053890179E-3
1.510965769E0,1.350410283E-3,5.810797215E-3,-1.094722748E-2,1.246718740E-2
1.527961496E0,5.461670458E-3,1.059737802E-2,-6.160736084E-3,1.341972183E-2
1.544947897E0,6.522685289E-4,5.764305592E-3,-6.159782410E-3,8.461417879E-3
1.561955557E0,1.094487682E-2,5.716755986E-3,-1.572990417E-2,1.999753767E-2
1.578965353E0,6.184209138E-3,9.885132313E-4,-6.159782410E-3,8.784333806E-3
1.595946607E0,1.044386253E-2,5.777359009E-3,-6.159782410E-3,1.343112285E-2
1.612959444E0,9.004287422E-4,9.983479977E-4,8.196830750E-3,8.306353290E-3
1.629947411E0,5.711045116E-3,9.541213512E-4,3.412246704E-3,6.720849012E-3
1.646964684E0,8.516050875E-4,1.535940170E-2,-6.159782410E-3,1.657043666E-2
1.663943434E0,1.522875950E-2,1.060023904E-3,-1.375198364E-3,1.532742434E-2
1.680940453E0,8.998326957E-4,1.058080792E-2,-6.159782410E-3,1.227624187E-2
1.697922957E0,1.049299911E-2,1.067042351E-3,-1.375198364E-3,1.063638943E-2
1.714921188E0,5.681406707E-3,1.063852012E-2,-1.375198364E-3,1.213868457E-2
1.731948339E0,1.048892364E-2,5.856111646E-3,-1.375198364E-3,1.209143223E-2
1.748924270E0,1.046002656E-2,5.808711052E-3,3.411293030E-3,1.244147097E-2
1.765906836E0,1.102883741E-2,5.862668157E-3,-1.094818115E-2,1.660929869E-2
1.782905615E0,5.617726594E-3,1.074986160E-2,-6.164550781E-3,1.360588339E-2
1.799912207E0,5.591686815E-3,-3.445029259E-3,-1.381874084E-3,6.711539616E-3
1.816911109E0,6.814152002E-4,-3.435745835E-3,-1.382827759E-3,3.765752080E-3
1.833904987E0,6.077736616E-4,1.081904769E-2,-6.165504456E-3,1.246734242E-2
1.850900764E0,5.839765072E-4,6.036117673E-3,3.404617310E-3,6.954650541E-3
1.867896482E0,5.942489952E-3,1.155048609E-3,-6.164550781E-3,8.639965883E-3
1.884893299E0,5.869641900E-4,5.892485380E-3,-6.162643433E-3,8.546583235E-3
1.901888956E0,4.624612629E-4,1.067779958E-2,3.406524658E-3,1.121756144E-2
1.918881682E0,5.272969604E-3,5.844011903E-3,-1.377105713E-3,7.990813707E-3
1.935871969E0,1.496308669E-2,5.796030164E-3,3.410339355E-3,1.640482684E-2
1.952872020E0,5.832612514E-4,1.016736031E-3,-1.376152039E-3,1.807689209E-3
1.969860108E0,5.340531468E-3,5.804538727E-3,-6.161689758E-3,1.000901428E-2
1.986858899E0,1.009625569E-2,1.058958471E-2,-1.376152039E-3,1.469583198E-2
2.003852602E0,1.150917262E-3,9.735524654E-4,-1.094722748E-2,1.105052960E-2
2.020844769E0,5.312070251E-3,5.710989237E-3,-6.159782410E-3,9.938632086E-3
2.037841229E0,5.386348814E-3,5.611628294E-3,-6.157875061E-3,9.920814025E-3
2.054844262E0,1.019286364E-2,5.614548922E-3,8.199691772E-3,1.423560937E-2
2.071848474E0,6.080336869E-3,8.860379457E-4,-1.094436646E-2,1.255128347E-2
2.088846358E0,5.505405366E-3,8.921474218E-4,-1.372337341E-3,5.743581204E-3
2.105841985E0,1.080546528E-2,7.961541414E-4,-6.156921387E-3,1.246192691E-2
2.122838709E0,1.261804253E-3,8.025765419E-4,-6.156921387E-3,6.335926139E-3
2.139834121E0,5.422830582E-3,5.692824721E-3,8.197784424E-3,1.135865372E-2
2.156830786E0,5.395393819E-3,5.746215582E-3,1.298141479E-2,1.518704705E-2
2.173826554E0,5.869343877E-4,5.697831511E-3,-6.159782410E-3,8.411462135E-3
2.190822974E0,5.395520478E-3,1.521235704E-2,-6.157875061E-3,1.727561499E-2
2.207794735E0,1.014834270E-2,5.693927407E-3,3.412246704E-3,1.212654511E-2
2.224812436E0,1.010429487E-2,9.164512157E-4,-1.374244690E-3,1.023841814E-2
2.241814064E0,5.273755640E-3,9.251832962E-4,-6.159782410E-3,8.161579627E-3
2.258810279E0,5.227845162E-3,5.613341928E-3,-6.157875061E-3,9.836635497E-3
2.275802153E0,5.284700543E-3,5.669057369E-3,8.197784424E-3,1.128139800E-2
2.292793771E0,5.237620324E-3,5.673229694E-3,-1.373291016E-3,7.842456888E-3
2.309801625E0,5.191344768E-3,8.450001478E-4,-6.158828735E-3,8.099089896E-3
2.326791768E0,9.978719056E-3,1.046772301E-2,3.411293030E-3,1.485883505E-2
2.343774740E0,4.672221839E-4,1.051856577E-2,-6.159782410E-3,1.219841965E-2
2.360784109E0,5.270726979E-4,5.737021565E-3,-6.159782410E-3,8.434105845E-3
2.377774852E0,5.267623812E-3,1.010909677E-3,3.408432007E-3,6.355093055E-3
2.394768627E0,5.170512944E-3,5.749732256E-3,-1.376152039E-3,7.854133915E-3
2.411772381E0,1.478895918E-2,5.702763796E-3,-6.160736084E-3,1.700557254E-2
2.428755057E0,5.273152143E-3,1.048816741E-2,-1.374244690E-3,1.181932052E-2
2.445748426E0,5.278743804E-3,5.706802011E-3,-1.374244690E-3,7.894382420E-3
2.462749789E0,1.006564870E-2,9.296387434E-4,-1.374244690E-3,1.020147345E-2
2.479743625E0,5.234759301E-3,5.719617009E-3,3.410339355E-3,8.470368244E-3
2.496749567E0,5.240380764E-3,1.045422256E-2,-1.373291016E-3,1.177447613E-2
2.513734338E0,5.093432963E-3,8.914470673E-4,-1.375198364E-3,5.350598823E-3
2.530722610E0,3.178827465E-4,8.491277695E-4,-1.374244690E-3,1.646394812E-3
2.547723536E0,-4.453156143E-3,8.576065302E-4,-1.373291016E-3,4.738355919E-3
2.564737524E0,5.070764571E-3,5.646944046E-3,-1.374244690E-3,7.712922848E-3
2.581730943E0,4.923798144E-3,5.650907755E-3,-6.160736084E-3,9.702124289E-3
2.598729488E0,4.980370402E-3,5.654856563E-3,-1.375198364E-3,7.659808263E-3
2.615726793E0,9.816870093E-3,8.263289928E-4,-1.374244690E-3,9.946974741E-3
2.632713081E0,1.459782571E-2,7.837116718E-4,-1.372337341E-3,1.468312055E-2
2.649709612E0,5.528315902E-3,7.412135601E-4,-1.094436646E-2,1.228376292E-2
2.666716734E0,4.986692220E-3,5.581840873E-3,3.412246704E-3,8.226024216E-3
2.683709786E0,2.113357186E-4,5.585670471E-3,-6.158828735E-3,8.317183946E-3
2.700706073E0,4.949361086E-3,5.639865994E-3,-1.374244690E-3,7.628421335E-3
2.717690194E0,4.954978824E-3,1.047527790E-2,-6.160736084E-3,1.312394496E-2
2.734698222E0,4.908531904E-3,5.744278431E-3,-1.377105713E-3,7.680289076E-3
2.751678548E0,9.745560586E-3,-3.762975335E-3,-1.379013062E-3,1.053743857E-2
2.768678853E0,4.964217544E-3,1.030936837E-3,3.406524658E-3,6.108248262E-3
2.785673219E0,7.864348590E-4,5.870684981E-3,-1.095199585E-2,1.245108971E-2
2.802670920E0,1.963041723E-4,5.822554231E-3,-6.163597107E-3,8.481191095E-3
2.819653464E0,5.139671266E-3,5.825787783E-3,-6.162643433E-3,9.916360123E-3
2.836651217E0,-3.870930523E-3,9.973496199E-4,-6.162643433E-3,7.345541740E-3
2.853649793E0,5.004424602E-3,5.836963654E-3,-1.379013062E-3,7.811279493E-3
2.870643049E0,5.112305284E-3,5.789667368E-3,-1.377105713E-3,7.845529535E-3
2.887639896E0,5.066379905E-3,1.063555479E-3,1.297760010E-2,1.397202419E-2
2.904634668E0,2.908669412E-4,1.068376005E-2,-6.164550781E-3,1.233811244E-2
2.921634271E0,5.029559135E-3,1.069530845E-3,-1.379013062E-3,5.323724105E-3
2.938629948E0,8.516758680E-4,1.058773696E-2,-1.095008850E-2,1.525548963E-2
2.955622696E0,5.043063313E-3,5.703270435E-3,-1.375198364E-3,7.736339689E-3
2.972621049E0,5.098894238E-3,5.655661225E-3,-1.374244690E-3,7.737814602E-3
2.989628576E0,5.103744566E-3,1.054148376E-2,8.194923401E-3,1.429432958E-2
3.006622392E0,1.048334688E-2,9.776502848E-4,-6.161689758E-3,1.219929435E-2
3.023611244E0,5.204893649E-3,5.715355277E-3,3.410339355E-3,8.449060205E-3
3.040610450E0,4.280470312E-4,5.667060614E-3,-1.094627380E-2,1.233368195E-2
3.057610299E0,9.998634458E-3,8.389502764E-4,-1.373291016E-3,1.012731242E-2
3.074607115E0,5.115877837E-3,8.473694324E-4,-1.373291016E-3,5.364342384E-3
3.091614357E0,5.222316831E-3,9.067058563E-4,-1.374244690E-3,5.475696948E-3
3.108615578E0,1.005800068E-2,5.644753575E-3,-1.373291016E-3,1.161518613E-2
3.125607981E0,4.965402186E-4,5.596771836E-3,-1.372337341E-3,5.783918823E-3
3.142604573E0,5.286525935E-3,5.599722266E-3,-1.372337341E-3,7.822247484E-3
3.159589447E0,5.239017308E-3,5.653321743E-3,-1.373291016E-3,7.829002318E-3
3.176594860E0,4.124678671E-4,5.554467440E-3,-1.371383667E-3,5.736107691E-3
3.193592418E0,3.716014326E-4,5.506798625E-3,3.414154053E-3,6.489943499E-3
3.210600821E0,-4.450459033E-3,5.458608270E-3,-1.369476318E-3,7.174848795E-3
3.227585685E0,9.854629636E-3,5.512371659E-3,-6.156921387E-3,1.286109045E-2
3.244567568E0,8.898042142E-4,5.464047194E-3,-1.094150543E-2,1.226230420E-2
3.261563926E0,9.860448539E-3,6.868541241E-4,-1.371383667E-3,9.979023356E-3
3.278569522E0,4.975490272E-3,5.372941494E-3,-6.155014038E-3,9.565991927E-3
3.295562402E0,7.468312979E-4,5.477353930E-3,-1.094341278E-2,1.226040156E-2
3.312565281E0,4.938498139E-3,1.020921767E-2,-1.370429993E-3,1.142343940E-2
3.329561222E0,7.097721100E-4,6.974339485E-4,-6.156921387E-3,6.236815816E-3
3.346561315E0,1.207403839E-4,5.485638976E-3,-1.371383667E-3,5.655749851E-3
3.363553472E0,6.776861846E-4,7.083863020E-4,-6.157875061E-3,6.235422599E-3
3.380550278E0,4.817709327E-3,1.490356028E-2,-6.154060364E-3,1.682851423E-2
3.397542527E0,4.771359265E-3,5.335345864E-3,3.417015076E-3,7.931442287E-3
3.414554104E0,4.725195467E-3,5.388990045E-3,-6.155967712E-3,9.447995787E-3
3.431530728E0,9.612269700E-3,5.615204573E-4,-6.154060364E-3,1.142731346E-2
3.448524787E0,4.780065268E-3,1.002772152E-2,-1.366615295E-3,1.119249125E-2
3.465507434E0,4.782259464E-3,5.156844854E-4,3.417968750E-3,5.900715757E-3
3.482512999E0,4.887543619E-3,5.253151059E-3,-6.152153015E-3,9.451595918E-3
3.499509062E0,4.839908332E-3,5.154132843E-3,3.420829773E-3,7.854417506E-3
3.516505533E0,4.996687174E-3,4.284232855E-4,3.419876099E-3,6.070089106E-3
3.533501006E0,2.211816609E-4,3.864169121E-4,-1.363754272E-3,1.434595787E-3
3.550534454E0,9.840395302E-3,5.072727799E-3,-1.361846924E-3,1.115439707E-2
3.567506521E0,9.635083377E-3,5.126565695E-3,3.420829773E-3,1.143759520E-2
3.584502920E0,7.224455476E-4,5.180031061E-3,-1.093673706E-2,1.212298919E-2
3.601496938E0,9.692486376E-3,9.860426188E-3,-1.362800598E-3,1.389350648E-2
3.618476909E0,4.809156060E-3,2.981871367E-4,-1.363754272E-3,5.007666452E-3
3.635505281E0,-1.679733396E-5,3.581792116E-4,-1.364707947E-3,1.411028801E-3
3.652483299E0,4.771918058E-3,5.197450519E-3,3.418922424E-3,7.840518120E-3
3.669487581E0,4.675336182E-3,5.098268390E-3,-6.150245667E-3,9.256167174E-3
3.686486748E0,-2.004913986E-4,2.710223198E-4,-1.363754272E-3,1.404804475E-3
3.703475325E0,-2.406090498E-4,9.889587760E-3,-1.364707947E-3,9.986203811E-3
3.720472029E0,-2.817586064E-4,5.106240511E-3,-6.151199341E-3,7.999395815E-3
3.737454167E0,4.559095949E-3,5.108937621E-3,3.420829773E-3,7.654323995E-3
3.754468897E0,3.297217190E-4,3.317892551E-4,-1.093769073E-2,1.094768830E-2
3.771450648E0,4.520688206E-3,5.068629980E-3,-1.364707947E-3,6.927485800E-3
3.788459589E0,4.579424858E-3,1.390129328E-4,-1.360893250E-3,4.779381452E-3
3.805451676E0,4.486527294E-3,4.876405001E-3,-1.360893250E-3,6.764634752E-3
3.822447994E0,4.444580525E-3,4.828244448E-3,-1.359939575E-3,6.701915856E-3
3.839445971E0,-3.787130117E-4,4.779770970E-3,3.426551819E-3,5.893292072E-3
3.856425463E0,-4.649236798E-4,4.731699824E-3,-1.358985901E-3,4.944894330E-3
3.873436643E0,5.030259490E-3,-4.925370216E-3,-1.092815399E-2,1.299951276E-2
3.890431486E0,-3.391616046E-4,-1.304298639E-4,3.429412842E-3,3.448610587E-3
3.907415679E0,4.403561354E-3,4.606723785E-3,-1.092720032E-2,1.264978116E-2
3.924428293E0,4.361845553E-3,4.609361291E-3,-6.141662598E-3,8.831303845E-3
3.941400706E0,9.249962866E-3,-1.665651798E-4,3.430366516E-3,9.866963637E-3
3.958403451E0,4.472129047E-3,4.621431231E-3,-6.141662598E-3,8.892557804E-3
3.975399597E0,-2.991817892E-4,-2.058893442E-4,-6.139755249E-3,6.150487353E-3
3.992395895E0,4.443246871E-3,1.414030790E-2,-1.354217529E-3,1.488370436E-2
4.009381633E0,-3.776922822E-4,-2.579391003E-4,-1.353263855E-3,1.428463195E-3
4.026387839E0,9.144850075E-3,-2.484321594E-4,-1.354217529E-3,9.247913632E-3
4.043387310E0,4.317406565E-3,9.369537234E-3,-6.141662598E-3,1.200617537E-2
4.060369915E0,-5.541108549E-4,-2.427846193E-4,-1.355171204E-3,1.484072843E-3
4.077374413E0,-5.382336676E-4,4.545584321E-3,-6.139755249E-3,7.658239146E-3
4.094373640E0,-6.762109697E-4,-2.814978361E-4,-1.355171204E-3,1.540451654E-3
4.111365624E0,4.117459059E-3,-3.229528666E-4,-1.353263855E-3,4.346158156E-3
4.128368360E0,-7.052458823E-4,9.243845940E-3,-1.354217529E-3,9.369096255E-3
4.145358179E0,8.868277073E-3,-2.669245005E-4,-1.355171204E-3,8.975192250E-3
4.162372573E0,8.819669485E-3,4.521504045E-3,-1.356124878E-3,1.000348156E-2
4.179366165E0,3.940459341E-3,-2.545714378E-4,8.214950562E-3,9.114682614E-3
4.196346024E0,-7.801540196E-4,-1.438707113E-4,-1.358032227E-3,1.572765273E-3
4.213354559E0,4.013624042E-3,4.643827677E-3,-1.358032227E-3,6.286379321E-3
4.230357377E0,8.799243718E-3,-2.346932888E-4,-6.141662598E-3,1.073320970E-2
4.247349759E0,4.123266786E-3,4.604086280E-3,-1.356124878E-3,6.327559889E-3
4.264333443E0,-7.481761277E-4,4.606410861E-3,-6.142616272E-3,7.714306398E-3
4.281345334E0,4.046577960E-3,4.558175802E-3,3.429412842E-3,6.993756664E-3
4.298321022E0,-6.711743772E-4,-1.158118248E-4,-1.358032227E-3,1.519256052E-3
4.315334339E0,4.276227206E-3,-5.559623241E-5,-6.144523621E-3,7.486279489E-3
4.332330789E0,4.233982414E-3,9.663373232E-3,-6.147384644E-3,1.221055802E-2
4.349318460E0,8.968088776E-3,1.514106989E-4,-6.149291992E-3,1.087489464E-2
4.366319407E0,4.191335291E-3,4.837274551E-3,3.423690796E-3,7.258662085E-3
4.451291159E0,4.161212593E-3,4.774600267E-3,-1.359939575E-3,6.477803147E-3
4.468286257E0,4.169717431E-3,-5.228817463E-5,8.212089539E-3,9.210195009E-3
4.485281944E0,4.177208990E-3,5.829334259E-5,-6.147384644E-3,7.432550774E-3
4.502278354E0,4.237681627E-3,4.794806242E-3,-1.093292236E-2,1.266794790E-2
4.519259768E0,4.296876490E-3,-8.313357830E-5,-1.358032227E-3,4.507139924E-3
4.536287215E0,4.204418510E-3,9.533718228E-3,-6.145477295E-3,1.209693389E-2
4.553279332E0,4.212502390E-3,2.254545689E-5,-1.360893250E-3,4.426930666E-3
4.570276077E0,4.118014127E-3,4.809573293E-3,-1.360893250E-3,6.476269454E-3
4.587271938E0,-6.516240537E-4,4.913032055E-3,3.421783447E-3,6.022549281E-3
4.604268652E0,3.990162164E-3,4.863873124E-3,3.422737122E-3,7.161967974E-3
4.621240068E0,3.999080509E-3,4.814803600E-3,-1.361846924E-3,6.405435635E-3
4.638263505E0,8.836783469E-3,4.765525460E-3,-1.360893250E-3,1.013168325E-2
4.655258765E0,3.955911845E-3,4.817545414E-3,-1.361846924E-3,6.380643336E-3
4.672253385E0,3.961373121E-3,4.869431257E-3,3.421783447E-3,7.149296450E-3
4.689235043E0,4.020631313E-3,1.438558102E-4,3.421783447E-3,5.281550209E-3
4.706231291E0,-9.019561112E-4,4.879683256E-3,-6.149291992E-3,7.901811534E-3
4.723240325E0,3.841686994E-3,5.225837231E-5,-6.149291992E-3,7.250867665E-3
4.740236733E0,8.679319173E-3,1.056492329E-5,-1.361846924E-3,8.785517627E-3
4.757219482E0,3.798574209E-3,4.848197103E-3,3.421783447E-3,7.045763488E-3
4.774228902E0,3.909159452E-3,1.224428415E-4,-6.150245667E-3,7.288486923E-3
4.791233592E0,-9.109191597E-4,9.636297822E-3,-6.148338318E-3,1.146691212E-2
4.808202800E0,-8.966960013E-4,4.800975323E-3,-1.361846924E-3,5.070311116E-3
4.825216890E0,3.895547241E-3,4.700556397E-3,3.424644470E-3,6.999907749E-3
4.842213451E0,4.005841911E-3,4.651337862E-3,-1.358032227E-3,6.286967858E-3
4.859209189E0,8.740212768E-3,4.703432322E-3,-6.144523621E-3,1.167342132E-2
4.876205436E0,3.960750997E-3,-1.239925623E-4,-1.358985901E-3,4.189244000E-3
4.893201134E0,-8.107125759E-4,-1.148283482E-4,3.426551819E-3,3.523023956E-3
4.910193861E0,3.983411938E-3,9.399399161E-3,-1.358032227E-3,1.029856916E-2
4.927180292E0,3.941055387E-3,-1.624375582E-4,-1.358032227E-3,4.171636975E-3
4.944181349E0,3.898691386E-3,-1.020729542E-4,-1.358985901E-3,4.130018897E-3
4.961173568E0,-9.235925972E-4,4.735559225E-3,3.424644470E-3,5.916648900E-3
4.978169581E0,-8.562579751E-4,4.736989737E-3,-1.360893250E-3,5.002427403E-3
4.995164841E0,8.766323328E-3,9.617730975E-3,-1.362800598E-3,1.308458632E-2
5.012160976E0,-7.887221873E-4,4.731833935E-3,3.425598145E-3,5.894663495E-3
5.029141769E0,4.005238414E-3,4.783868790E-3,-1.360893250E-3,6.385872359E-3
5.046166246E0,3.962542862E-3,-9.447336197E-5,-6.144523621E-3,7.312034031E-3
5.063161913E0,4.020795226E-3,9.520694613E-3,-1.360893250E-3,1.042412829E-2
5.080158871E0,3.876533359E-3,4.634588957E-3,-6.144523621E-3,8.617545834E-3
5.097141437E0,3.783281893E-3,9.413540363E-3,-1.358985901E-3,1.023595656E-2
5.114146727E0,-8.839853108E-4,-9.749829769E-5,-6.145477295E-3,6.209494917E-3
5.131137215E0,3.808349371E-3,-1.389384270E-4,-6.144523621E-3,7.230352643E-3
5.148142780E0,-9.617544711E-4,4.545971751E-3,-6.142616272E-3,7.702114352E-3
5.165138488E0,3.833346069E-3,9.325191379E-3,-1.356124878E-3,1.017314165E-2
5.182123626E0,3.842849284E-3,4.490494728E-3,-1.356124878E-3,6.063918552E-3
5.199130859E0,3.851283342E-3,4.441305995E-3,-1.354217529E-3,6.032535738E-3
5.216127340E0,3.909479827E-3,4.493489861E-3,-1.356124878E-3,6.108564343E-3
5.233122651E0,3.866612911E-3,4.494652152E-3,-1.356124878E-3,6.082077610E-3
5.250118796E0,3.925658762E-3,-2.303570509E-4,-1.357078552E-3,4.159990780E-3
5.267114575E0,-8.943565190E-4,-3.224015236E-4,-1.355171204E-3,1.655386757E-3
5.284111381E0,-8.269958198E-4,-2.619177103E-4,-6.141662598E-3,6.202623835E-3
5.301107190E0,8.843470365E-3,9.251460433E-3,3.431320190E-3,1.325029986E-2
5.318103284E0,4.012756050E-3,4.415795207E-3,-6.138801575E-3,8.560744313E-3
5.335094466E0,4.021700472E-3,-3.592222929E-4,-6.139755249E-3,7.348449487E-3
5.352104944E0,4.033394158E-3,4.533171654E-3,-1.356124878E-3,6.217474436E-3
5.369098098E0,4.045005888E-3,4.588827491E-3,-6.142616272E-3,8.668976009E-3
5.386083013E0,4.054509103E-3,4.491627216E-3,-6.139755249E-3,8.620345332E-3
5.403078568E0,-6.613619626E-4,9.273514152E-3,-6.139755249E-3,1.114145677E-2
5.420063472E0,-6.425864995E-4,4.492551088E-3,-1.354217529E-3,4.736014971E-3
5.437050381E0,4.154432565E-3,9.172767401E-3,-1.092433929E-2,1.485732684E-2
5.454061154E0,4.063993692E-3,4.341438413E-3,-1.351356506E-3,6.098384756E-3
5.471054765E0,4.075467587E-3,4.245087504E-3,-1.349449158E-3,6.037484327E-3
5.488050208E0,3.985248506E-3,4.199624062E-3,-1.349449158E-3,5.944750705E-3
5.505047666E0,3.895208240E-3,-5.211681128E-4,-1.351356506E-3,4.155770427E-3
5.522057850E0,-7.692165673E-4,4.371300340E-3,-6.138801575E-3,7.575278580E-3
5.539051736E0,4.026807845E-3,9.051620960E-3,-1.349449158E-3,9.998401695E-3
5.556049549E0,3.987532109E-3,9.098798037E-3,-1.092338562E-2,1.476512416E-2
5.573040964E0,4.100911319E-3,-4.588514566E-4,-6.136894226E-3,7.395234212E-3
5.590043416E0,4.010409117E-3,4.331916571E-3,-1.351356506E-3,6.055992641E-3
5.607020671E0,3.921594471E-3,9.165093303E-3,-1.353263855E-3,1.006027641E-2
5.624022939E0,3.830496222E-3,-4.435777664E-4,-1.353263855E-3,4.086659467E-3
5.641032431E0,3.893345594E-3,-3.789514303E-4,-1.353263855E-3,4.139210935E-3
5.658025218E0,3.955762833E-3,-3.143548965E-4,3.431320190E-3,5.246030580E-3
5.675008028E0,-8.605048060E-4,-3.516227007E-4,-1.354217529E-3,1.642562681E-3
5.692019869E0,3.833949566E-3,-3.382563591E-4,3.431320190E-3,5.156311171E-3
5.709010562E0,3.845427185E-3,4.401326180E-3,-1.354217529E-3,5.999407262E-3
5.726008741E0,3.806348890E-3,4.355132580E-3,-6.138801575E-3,8.434474283E-3
5.743005100E0,8.593957871E-3,4.410490394E-3,-6.139755249E-3,1.144574733E-2
5.759998905E0,8.596863598E-3,4.415243864E-3,-1.354217529E-3,9.758808698E-3
5.776992244E0,3.720313311E-3,-3.061890602E-4,-1.356124878E-3,3.971593830E-3
5.793994003E0,3.681585193E-3,4.331424832E-3,-6.138801575E-3,8.366611942E-3
5.810989385E0,3.693662584E-3,4.234716296E-3,-1.351356506E-3,5.779457570E-3
5.827984177E0,-1.122105867E-3,4.239723086E-3,-1.351356506E-3,4.589176161E-3
5.844982225E0,3.623515368E-3,4.244610667E-3,-1.351356506E-3,5.742190152E-3
5.861974280E0,3.532756120E-3,4.148021340E-3,3.436088562E-3,6.441517791E-3
5.878976721E0,-1.131270081E-3,-5.727708340E-4,-1.350402832E-3,1.852410924E-3
5.895957965E0,3.716915846E-3,8.994922042E-3,3.435134888E-3,1.032105797E-2
5.912949297E0,3.727484494E-3,4.163101315E-3,-6.134986877E-3,8.298410523E-3
5.929948769E0,3.840830177E-3,-6.591081619E-4,3.437042236E-3,5.196119644E-3
5.946945027E0,3.750663251E-3,4.080891609E-3,-1.347541809E-3,5.704123077E-3
5.963935760E0,-9.138360620E-4,4.086121917E-3,3.437995911E-3,5.417684427E-3
5.980936990E0,3.934092820E-3,4.040643573E-3,-1.345634460E-3,5.797811561E-3
5.997933400E0,3.893427551E-3,-7.815510035E-4,3.439903259E-3,5.253811426E-3
6.014915528E0,3.905516118E-3,-8.680969477E-4,-1.343727112E-3,4.220456256E-3
6.031936921E0,8.541818708E-3,3.821969032E-3,3.443717957E-3,9.971424547E-3
6.048934205E0,8.493717760E-3,3.776833415E-3,-1.340866089E-3,9.391785448E-3
6.065942985E0,3.770664334E-3,3.731876612E-3,-1.339912415E-3,5.471761859E-3
6.082926129E0,3.883734345E-3,3.737404943E-3,-6.125450134E-3,8.159211207E-3
6.099922873E0,-8.306838572E-4,-1.033306122E-3,-1.338958740E-3,1.884295019E-3
6.116907851E0,3.915380687E-3,3.656610847E-3,-1.338005066E-3,5.521889745E-3
6.133915144E0,-9.008981287E-4,8.388578892E-3,3.448486328E-3,9.114380463E-3
6.150910770E0,4.048496485E-3,3.609135747E-3,3.449440002E-3,6.427660613E-3
6.167907067E0,8.785128593E-3,-1.110345125E-3,3.447532654E-3,9.502464528E-3
6.184887629E0,3.958705813E-3,-1.146405935E-3,-1.338005066E-3,4.333111565E-3
6.201888982E0,8.693244308E-3,3.644838929E-3,3.447532654E-3,1.003707272E-2
6.218892247E0,8.543938398E-3,3.701642156E-3,-6.125450134E-3,1.114550032E-2
6.235881882E0,-1.057449728E-3,-1.069128513E-3,-1.339912415E-3,2.014100540E-3
6.252857408E0,8.515443653E-3,3.722161055E-3,3.444671631E-3,9.911257547E-3
6.269887010E0,-5.863331258E-3,8.605822921E-3,-1.342773438E-3,1.049961343E-2
6.286879147E0,3.667641431E-3,3.774464130E-3,-6.126403809E-3,8.076570854E-3
6.303859850E0,3.678284585E-3,-1.047268510E-3,-1.340866089E-3,4.052711523E-3
6.320859850E0,3.790389746E-3,-1.134246588E-3,-1.338005066E-3,4.176580815E-3
6.337854480E0,-9.746178985E-4,3.657475114E-3,3.446578979E-3,5.119170921E-3
6.354852284E0,3.771513700E-3,3.714084625E-3,-1.339912415E-3,5.460229434E-3
6.371835051E0,3.732036799E-3,3.719955683E-3,3.444671631E-3,6.295389710E-3
6.388833210E0,8.518595248E-3,3.674954176E-3,8.232116699E-3,1.240320517E-2
6.405823832E0,3.642737865E-3,-1.044780016E-3,-1.340866089E-3,4.019829139E-3
6.422825673E0,3.552682698E-3,-1.131504774E-3,-1.338958740E-3,3.961649645E-3
6.439822622E0,3.513585776E-3,-1.218006015E-3,-1.338005066E-3,3.952098331E-3
6.456816926E0,-1.250937581E-3,3.675356507E-3,3.445625305E-3,5.190898191E-3
6.473813732E0,3.492455930E-3,3.731191158E-3,-1.340866089E-3,5.283650040E-3
6.490809816E0,3.453377634E-3,3.635317087E-3,3.446578979E-3,6.084427177E-3
6.507806357E0,3.465257585E-3,3.641113639E-3,-1.339912415E-3,5.202026907E-3
6.524801415E0,3.476053476E-3,-5.956828594E-3,-6.124496460E-3,9.223676683E-3
6.541798801E0,8.212164044E-3,3.619983792E-3,-1.338958740E-3,9.073958974E-3
6.558794681E0,3.490287811E-3,3.524348140E-3,-1.337051392E-3,5.137202082E-3
6.575789819E0,-1.375600696E-3,3.479361534E-3,-1.336097717E-3,3.972831619E-3
6.592795374E0,3.320343792E-3,3.485277295E-3,-6.122589111E-3,7.788320624E-3
6.609784286E0,3.229677677E-3,-1.386731863E-3,-1.336097717E-3,3.760186201E-3
6.626785640E0,-1.636896282E-3,3.353938460E-3,-1.335144043E-3,3.963703098E-3
6.643786220E0,3.110449761E-3,3.410801291E-3,-6.121635437E-3,7.666999647E-3
6.660761053E0,-1.703958958E-3,-1.359432936E-3,-6.122589111E-3,6.499048505E-3
6.677789313E0,3.093227744E-3,3.482982516E-3,-1.338005066E-3,4.846594953E-3
6.694785530E0,-1.723188907E-3,3.488466144E-3,-1.338005066E-3,4.114490685E-3
6.711784064E0,3.124911338E-3,3.443256021E-3,-6.122589111E-3,7.688119427E-3
6.728777025E0,3.136239946E-3,3.449067473E-3,-1.337051392E-3,4.849718946E-3
6.745773496E0,3.199025989E-3,-1.270502806E-3,-6.123542786E-3,7.024650945E-3
6.762779560E0,-1.615535468E-3,3.470167518E-3,-1.338005066E-3,4.054907521E-3
6.779752827E0,3.282640129E-3,-1.299872994E-3,3.448486328E-3,4.935327140E-3
6.796761555E0,3.293704242E-3,-1.385867596E-3,3.450393677E-3,4.967326559E-3
6.813759888E0,3.356516361E-3,3.406018019E-3,3.450393677E-3,5.896810778E-3
6.830736908E0,3.368519247E-3,3.412172198E-3,-1.335144043E-3,4.977193048E-3
6.847752472E0,3.329526633E-3,-1.306906343E-3,-6.122589111E-3,7.090828528E-3
6.864743145E0,-1.588020474E-3,8.260339499E-3,3.447532654E-3,9.090681991E-3
6.881731528E0,-1.566026360E-3,-6.071344018E-3,-1.338005066E-3,6.411233446E-3
6.898721010E0,7.850412279E-3,8.335337043E-3,-6.125450134E-3,1.298568273E-2
6.915719566E0,-1.702696085E-3,3.406584263E-3,8.234977722E-3,9.072973514E-3
6.932717085E0,-1.735385507E-3,3.567874432E-3,-1.091194153E-2,1.161084660E-2
6.949712710E0,3.057669848E-3,3.525882959E-3,3.446578979E-3,5.801732690E-3
6.966709090E0,3.014333546E-3,3.483593464E-3,-6.123542786E-3,7.662858892E-3
6.983705479E0,-1.754079014E-3,-6.109908223E-3,3.447532654E-3,7.231407407E-3
7.000717676E0,2.938374877E-3,8.195102215E-3,-6.122589111E-3,1.064330046E-2
7.017710566E0,-1.727547497E-3,-1.509562135E-3,-1.334190369E-3,2.653914492E-3
7.034703130E0,8.491765708E-3,3.233999014E-3,-2.526187897E-2,2.684644042E-2
7.051703233E0,3.063306212E-3,8.070886135E-3,2.259349823E-2,2.418655019E-2
7.068688635E0,3.071803600E-3,-1.103265584E-2,-1.335144043E-3,1.152987779E-2
7.085692410E0,7.700689137E-3,3.180205822E-3,-6.118774414E-3,1.033700743E-2
7.102698819E0,2.973333001E-3,7.920831442E-3,-1.331329346E-3,8.564620114E-3
7.119674232E0,-1.744113863E-3,-1.529335976E-3,3.452301025E-3,4.159228782E-3
7.136682666E0,2.998959273E-3,-1.612097025E-3,-6.117820740E-3,7.001453002E-3
7.153678790E0,7.579039782E-3,7.907822728E-3,-1.331329346E-3,1.103394499E-2
7.170653786E0,2.802591771E-3,-1.643270254E-3,8.239746094E-3,8.857102994E-3
7.187669717E0,2.861566842E-3,8.028477430E-3,-1.090621948E-2,1.384162700E-2
7.204658020E0,-1.905560493E-3,3.151252866E-3,1.302433014E-2,1.353494481E-2
7.221663340E0,-1.938715577E-3,-1.666381955E-3,-6.116867065E-3,6.629593472E-3
7.238659495E0,2.854786813E-3,-1.595988870E-3,3.452301025E-3,4.755562069E-3
7.255657492E0,1.231120154E-2,-1.678735018E-3,-6.116867065E-3,1.384918400E-2
7.272650819E0,2.647146583E-3,3.218248487E-3,-1.334190369E-3,4.375451096E-3
7.289649741E0,2.755660564E-3,3.176420927E-3,-6.118774414E-3,7.424467346E-3
7.306636182E0,2.764604986E-3,7.961362600E-3,-6.118774414E-3,1.041468845E-2
7.323644015E0,2.823077142E-3,-1.641929150E-3,-6.117820740E-3,6.934942429E-3
7.340635765E0,7.605377585E-3,-1.571953297E-3,-1.334190369E-3,7.879902875E-3
7.357619001E0,2.828549594E-3,3.273651004E-3,-6.120681763E-3,7.495347153E-3
7.374627761E0,-1.938212663E-3,3.282591701E-3,-6.120681763E-3,7.210743501E-3
7.391608545E0,-1.818004996E-3,3.342568874E-3,-1.336097717E-3,4.032749181E-3
7.408605665E0,7.648784667E-3,3.402292728E-3,-1.338005066E-3,8.477603450E-3
7.425602891E0,7.646426558E-3,-1.364633441E-3,-1.338005066E-3,7.881644568E-3
7.442598984E0,2.920314670E-3,-1.447215676E-3,-1.336097717E-3,3.522474712E-3
7.459592820E0,-1.795951277E-3,3.601729870E-3,3.444671631E-3,5.297514671E-3
7.476593411E0,3.049060702E-3,3.660887480E-3,-6.127357483E-3,7.761660778E-3
7.493590308E0,-1.718029380E-3,8.343338966E-3,-1.339912415E-3,8.623125613E-3
7.510595313E0,2.974189818E-3,-1.209139824E-3,-6.126403809E-3,6.916693416E-3
7.527593951E0,2.931807190E-3,3.584787250E-3,-6.126403809E-3,7.679779727E-3
7.544575213E0,2.991121262E-3,3.593221307E-3,-6.126403809E-3,7.706547177E-3
7.561585091E0,2.896569669E-3,3.601819277E-3,3.444671631E-3,5.764458396E-3
7.578577482E0,7.679581642E-3,3.558814526E-3,-1.091289520E-2,1.381059075E-2
7.595566660E0,2.801898867E-3,-1.207903028E-3,-1.341819763E-3,3.333188753E-3
7.612573719E0,2.810705453E-3,-1.239687204E-3,3.444671631E-3,4.615479623E-3
7.629567494E0,2.768643200E-3,8.329853415E-3,-1.340866089E-3,8.879739014E-3
7.646564627E0,-6.721418351E-3,3.603801131E-3,-1.342773438E-3,7.743893578E-3
7.663561575E0,2.857409418E-3,3.561273217E-3,-1.340866089E-3,4.758715938E-3
7.680557119E0,7.641319185E-3,3.620386124E-3,-6.128311157E-3,1.044285173E-2
7.697552950E0,2.813510597E-3,-5.871191621E-3,-1.343727112E-3,6.647731604E-3
7.714525525E0,2.720557153E-3,3.759264946E-3,3.439903259E-3,5.776368980E-3
7.731546735E0,-2.048067749E-3,-1.059189439E-3,-1.345634460E-3,2.669680856E-3
7.748539349E0,2.695441246E-3,3.633141518E-3,3.441810608E-3,5.684292485E-3
7.765524478E0,-2.121713012E-3,-1.133739948E-3,-1.343727112E-3,2.755473631E-3
7.782534021E0,2.670727670E-3,-1.064851880E-3,-1.345634460E-3,3.174496482E-3
7.799529107E0,2.780228853E-3,-9.958148003E-4,-1.345634460E-3,3.245312264E-3
7.816516423E0,2.636514604E-3,3.848999739E-3,8.222579956E-3,9.453931953E-3
7.833518814E0,2.543844283E-3,-9.691864252E-4,-1.347541809E-3,3.037488270E-3
7.850521062E0,2.550959587E-3,-9.512603283E-4,-1.348495483E-3,3.038211825E-3
7.867513373E0,2.560198307E-3,3.791168332E-3,-6.132125854E-3,7.650525485E-3
7.884492937E0,2.627205104E-3,3.845289350E-3,-6.134033203E-3,7.701611531E-3
7.901492601E0,-2.130713314E-3,-8.774101734E-4,3.436088562E-3,4.137208291E-3
7.918488766E0,-2.152722329E-3,3.960654140E-3,-1.350402832E-3,4.705803061E-3
7.935481595E0,-2.123888582E-3,3.911331296E-3,-1.348495483E-3,4.650575801E-3
7.952480487E0,2.678036690E-3,3.963142633E-3,-1.349449158E-3,4.969848395E-3
7.969476784E0,2.696346492E-3,-5.585774779E-3,-1.350402832E-3,6.347814750E-3
7.986495634E0,2.662688494E-3,-7.882565260E-4,3.434181213E-3,4.416430569E-3
8.003479176E0,-2.094168216E-3,-8.273720741E-4,-6.134986877E-3,6.535147210E-3
8.020481089E0,-2.065379173E-3,4.010632634E-3,3.434181213E-3,5.669617788E-3
8.037474223E0,7.563333958E-3,3.960803151E-3,-1.349449158E-3,8.643667925E-3
8.054470662E0,2.895124257E-3,-8.132010698E-4,3.436088562E-3,4.566152105E-3
8.071460511E0,-1.759607345E-3,-9.535998106E-4,-6.131172180E-3,6.449561451E-3
8.088455852E0,-6.608538330E-3,3.782808781E-3,-6.131172180E-3,9.776179900E-3
8.105463991E0,-1.742832363E-3,3.785148263E-3,-1.344680786E-3,4.378695974E-3
8.122449047E0,3.008425236E-3,-1.038834453E-3,-1.343727112E-3,3.454765111E-3
8.139450737E0,2.975031734E-3,-1.026153564E-3,3.440856934E-3,4.662971305E-3
8.156441430E0,2.992518246E-3,3.761604428E-3,3.440856934E-3,5.911372917E-3
8.173434858E0,-1.714218408E-3,3.712415695E-3,-1.342773438E-3,4.303907010E-3
8.190438714E0,-1.838672906E-3,3.815725446E-3,-6.131172180E-3,7.451962898E-3
8.207434554E0,2.913773060E-3,3.817364573E-3,-1.346588135E-3,4.987549031E-3
8.224449528E0,2.930592746E-3,-9.564012289E-4,-1.346588135E-3,3.363982276E-3
8.241434749E0,2.948544919E-3,-9.443014860E-4,-1.346588135E-3,3.376228968E-3
8.258418757E0,7.587715983E-3,3.842040896E-3,-1.091861725E-2,1.384019200E-2
8.275419582E0,-2.006076276E-3,8.670121431E-3,8.222579956E-3,1.211635955E-2
8.292414985E0,2.847287804E-3,-9.910315275E-4,-6.131172180E-3,6.832310270E-3
8.309411068E0,2.763506025E-3,-9.787082672E-4,-1.346588135E-3,3.226164135E-3
8.326407082E0,7.403027266E-3,3.859087825E-3,-1.348495483E-3,8.456702171E-3
8.343414416E0,-2.243153751E-3,3.859862685E-3,-6.134033203E-3,7.586609390E-3
8.360406868E0,-2.265740186E-3,8.687317371E-3,-6.134986877E-3,1.087387354E-2
8.377366657E0,2.537202090E-3,-8.726269007E-4,-1.092147827E-2,1.124622425E-2
8.394378315E0,2.504821867E-3,-8.606761694E-4,-1.349449158E-3,2.972525708E-3
8.411371174E0,-2.253752202E-3,-7.985383272E-4,-6.136894226E-3,6.586238167E-3
8.428368947E0,2.448700368E-3,-8.371025324E-4,3.434181213E-3,4.300055203E-3
8.445366446E0,2.466451377E-3,-8.769333363E-4,-1.570796967E-2,1.592459436E-2
8.462362508E0,2.433102578E-3,3.960847855E-3,3.434181213E-3,5.779438077E-3
8.479375275E0,2.297796309E-3,8.635014296E-3,-1.349449158E-3,9.036833117E-3
8.496367850E0,2.367503941E-3,3.901839256E-3,3.435134888E-3,5.712230404E-3
8.513363690E0,-2.388365567E-3,-9.233951569E-4,-2.049255371E-2,2.065191774E-2
8.530360221E0,2.414878458E-3,8.638843894E-3,8.221626282E-3,1.216784289E-2
8.547356438E0,-2.496674657E-3,-9.712576866E-4,8.221626282E-3,8.647072600E-3
8.564351809E0,7.082711905E-3,-9.590983391E-4,-1.092147827E-2,1.305233179E-2
8.581346978E0,2.314854413E-3,-1.099050045E-3,8.225440979E-3,8.615354970E-3
8.598337609E0,2.282045782E-3,3.738909960E-3,-1.347541809E-3,4.582908418E-3
8.615334995E0,2.350091934E-3,-1.187384129E-3,-1.343727112E-3,2.956081142E-3
8.632335962E0,2.419453114E-3,1.315043867E-2,8.228302002E-3,1.570008740E-2
8.649332056E0,-2.388693392E-3,3.581255674E-3,3.441810608E-3,5.511561357E-3
8.666328395E0,7.139757276E-3,-1.191750169E-3,-6.129264832E-3,9.484950701E-3
8.683324886E0,-2.453956753E-3,8.370637894E-3,-1.343727112E-3,8.825819228E-3
8.700320613E0,-2.525884658E-3,3.587022424E-3,-1.343727112E-3,4.588292245E-3
8.717318153E0,2.175122499E-3,-1.288354397E-3,-1.091480255E-2,1.120374623E-2
8.734286385E0,6.916739047E-3,-1.174554229E-3,-1.345634460E-3,7.143639743E-3
8.751292895E0,-2.524990588E-3,3.511264920E-3,8.228302002E-3,9.295671716E-3
8.768306170E0,2.278663218E-3,3.513470292E-3,3.442764282E-3,5.421199633E-3
8.785285734E0,-2.527777106E-3,-1.259312034E-3,-6.128311157E-3,6.747719728E-3
8.802296893E0,2.327919006E-3,-1.079644263E-2,-1.091575623E-2,1.552855802E-2
8.819280842E0,2.447035164E-3,3.562644124E-3,3.442764282E-3,5.525671014E-3
8.836297556E0,-2.412904054E-3,3.615275025E-3,3.441810608E-3,5.544220391E-3
8.853295909E0,-2.536375076E-3,-5.983918905E-3,-1.570129395E-2,1.699326677E-2
8.870264456E0,6.991118193E-3,1.324035227E-2,8.224487305E-3,1.708288188E-2
8.887249920E0,7.596246898E-3,-1.054063439E-3,-2.049064636E-2,2.187877065E-2
8.904259726E0,6.801504642E-3,3.683239222E-3,2.258014679E-2,2.386817432E-2
8.921254834E0,1.933787018E-3,-1.141086221E-3,-1.091861725E-2,1.114709884E-2
8.938252300E0,-2.719499171E-3,8.420497179E-3,-1.091766357E-2,1.405332083E-2
8.955242089E0,2.087678760E-3,8.360579610E-3,-1.091766357E-2,1.390874085E-2
8.972225386E0,-2.668473870E-3,3.627613187E-3,3.439903259E-3,5.666856682E-3
8.989266167E0,6.961334497E-3,-5.869328976E-3,-6.132125854E-3,1.097780343E-2
9.006249261E0,2.042949200E-3,3.754585981E-3,3.437042236E-3,5.484871617E-3
9.023218774E0,2.061221749E-3,3.806501627E-3,-1.349449158E-3,4.534214680E-3
9.040238377E0,2.080645412E-3,-9.665042162E-4,3.436088562E-3,4.131576011E-3
9.057228155E0,-7.602777332E-3,3.820180893E-3,-1.350402832E-3,8.615079397E-3
9.074233547E0,-2.837467939E-3,3.873020411E-3,1.300525665E-2,1.386319631E-2
9.091226243E0,6.690710783E-3,-9.519606829E-4,-1.092338562E-2,1.284492870E-2
9.108232427E0,6.700869650E-3,-9.391456842E-4,3.434181213E-3,7.587967401E-3
9.125221676E0,-3.042787313E-3,3.949418664E-3,8.216857910E-3,9.611098602E-3
9.142217963E0,-3.012675792E-3,3.949940205E-3,-6.139755249E-3,7.897774216E-3
9.159214099E0,-2.930749208E-3,8.572950959E-3,-6.134986877E-3,1.094179341E-2
9.176196978E0,6.597556174E-3,3.687188029E-3,3.437042236E-3,8.302792444E-3
9.193208443E0,1.831836998E-3,3.587320447E-3,3.438949585E-3,5.296307112E-3
9.210198312E0,1.851696521E-3,3.589361906E-3,3.439903259E-3,5.305208133E-3
9.227216695E0,-7.626894861E-3,8.365675807E-3,-1.345634460E-3,1.140021004E-2
9.244194427E0,1.911193132E-3,3.480195999E-3,3.441810608E-3,5.254567884E-3
9.261186859E0,6.703324616E-3,-1.292482018E-3,3.441810608E-3,7.645333932E-3
9.278189402E0,1.986119896E-3,3.392964602E-3,-1.341819763E-3,4.154198034E-3
9.295182587E0,1.849945635E-3,3.394722939E-3,3.442764282E-3,5.176781682E-3
9.312175039E0,1.768238842E-3,3.396913409E-3,-1.342773438E-3,4.058168284E-3
9.329177299E0,-2.936497331E-3,3.246918321E-3,8.232116699E-3,9.323799682E-3
9.346170332E0,-2.853494138E-3,3.249570727E-3,-1.338958740E-3,4.527134769E-3
9.363150413E0,1.952089369E-3,3.151223063E-3,8.234977722E-3,9.030820438E-3
9.380149549E0,-2.901997417E-3,3.205642104E-3,3.447532654E-3,5.530209011E-3
9.397141768E0,-2.968106419E-3,7.882297039E-3,-1.336097717E-3,8.527919995E-3
9.414141605E0,-2.830825746E-3,7.875233889E-3,-1.335144043E-3,8.474402210E-3
9.431137790E0,-2.847291529E-3,3.042414784E-3,-6.119728088E-3,7.403676698E-3
9.448131363E0,1.961670816E-3,3.096804023E-3,-6.120681763E-3,7.134500178E-3
9.465148016E0,6.811298430E-3,3.100574017E-3,-6.120681763E-3,9.667993110E-3
9.482139053E0,1.999039203E-3,3.205731511E-3,-6.122589111E-3,7.194370694E-3
9.499135199E0,-2.700578421E-3,-1.565411687E-3,-1.338005066E-3,3.396158877E-3
9.516131080E0,-7.389307022E-3,3.223747015E-3,-6.122589111E-3,1.012326531E-2
9.533123664E0,2.053227276E-3,3.227531910E-3,-1.338005066E-3,4.052525389E-3
9.550126513E0,2.127841115E-3,3.231182694E-3,3.448486328E-3,5.182693062E-3
9.567119067E0,6.976846606E-3,-6.263241172E-3,-1.338005066E-3,9.470735773E-3
9.584114846E0,2.315428108E-3,-1.412689686E-3,-6.124496460E-3,6.698235317E-3
9.601111754E0,-2.537004650E-3,3.427252173E-3,3.444671631E-3,5.481625005E-3
9.618115853E0,2.269983292E-3,8.153840899E-3,3.446578979E-3,9.138755507E-3
9.635103352E0,2.241708338E-3,-1.352712512E-3,-6.126403809E-3,6.662425312E-3
9.652084574E0,6.988935173E-3,-1.490637660E-3,-1.338005066E-3,7.270314507E-3
9.669083415E0,6.950553507E-3,3.298103809E-3,-1.091098785E-2,1.335055575E-2
9.686081961E0,2.035383135E-3,3.402948380E-3,-1.340866089E-3,4.185781175E-3
9.703086091E0,2.008613199E-3,3.405377269E-3,-1.569938660E-2,1.618956024E-2
9.720085278E0,2.031628042E-3,-1.366123557E-3,-1.341819763E-3,2.791824914E-3
9.737066683E0,-2.767320722E-3,-1.351475716E-3,-6.128311157E-3,6.858625827E-3
9.754076205E0,2.042133361E-3,3.437787294E-3,8.228302002E-3,9.148423032E-3
9.771071810E0,2.064939588E-3,8.215293288E-3,3.443717957E-3,9.144080745E-3
9.788072807E0,-7.358316332E-3,3.432825208E-3,-1.340866089E-3,8.229643371E-3
9.805048598E0,-2.591867000E-3,8.260160685E-3,-1.342773438E-3,8.760768778E-3
9.822063297E0,2.165418118E-3,-1.449748874E-3,-6.124496460E-3,6.655844373E-3
9.839052678E0,2.087522298E-3,-1.435399055E-3,-6.125450134E-3,6.628669485E-3
9.856035843E0,2.060718834E-3,3.404483199E-3,3.443717957E-3,5.262723756E-3
9.873023737E0,2.084571868E-3,-1.417726278E-3,-6.126403809E-3,6.624817831E-3
9.890019465E0,6.779067218E-3,3.370419145E-3,-6.126403809E-3,9.739009251E-3
9.907020941E0,-2.706199884E-3,3.272503614E-3,8.233070374E-3,9.263705819E-3
9.924014116E0,2.051372081E-3,3.275737166E-3,-1.338958740E-3,4.090402414E-3
9.941009447E0,-2.750936896E-3,-1.393839717E-3,-1.340866089E-3,3.362791226E-3
9.958005246E0,6.680548191E-3,-1.379176974E-3,3.443717957E-3,7.641403446E-3
9.975002571E0,-7.733277977E-3,-1.466587186E-3,3.444671631E-3,8.591869929E-3
9.991997781E0,1.760937274E-3,3.373160958E-3,-1.341819763E-3,4.034798038E-3
1.000899490E1,1.684952527E-3,-1.448273659E-3,3.444671631E-3,4.099063827E-3
1.002599024E1,1.659013331E-3,3.238528967E-3,-1.091194153E-2,1.150264591E-2
1.004298673E1,-3.193225712E-3,3.191262484E-3,3.446578979E-3,5.679767015E-3
1.005997966E1,1.617379487E-3,-1.528471708E-3,3.445625305E-3,4.101764975E-3
1.007698452E1,6.364718080E-3,-1.666560769E-3,-6.123542786E-3,8.988038567E-3
1.009397408E1,1.502536237E-3,3.173336387E-3,-6.124496460E-3,7.059542185E-3
1.011096965E1,-3.350332379E-3,3.074988723E-3,-1.337051392E-3,4.740041046E-3
1.012796569E1,1.409903169E-3,3.129646182E-3,-1.338958740E-3,3.684470475E-3
1.014497414E1,1.486193389E-3,3.133118153E-3,-6.123542786E-3,7.037256312E-3
1.016196765E1,1.511346549E-3,3.086268902E-3,3.448486328E-3,4.868396253E-3
1.017896418E1,1.535318792E-3,3.090336919E-3,8.234024048E-3,8.927851818E-3
1.019595967E1,1.609202474E-3,-1.630499959E-3,-1.569557190E-2,1.586187378E-2
1.021295328E1,-3.242772073E-3,3.209128976E-3,-6.125450134E-3,7.637749593E-3
1.022995185E1,-3.255911171E-3,-1.561298966E-3,-1.339912415E-3,3.851490270E-3
1.024696756E1,1.553762704E-3,3.176927567E-3,3.446578979E-3,4.938213641E-3
1.026394410E1,1.528657973E-3,-1.695722342E-3,-1.569461823E-2,1.585980172E-2
1.028094573E1,6.274890155E-3,3.042295575E-3,-1.336097717E-3,7.100349705E-3
1.029795613E1,-3.260869533E-3,2.995371819E-3,3.450393677E-3,5.613442702E-3
1.031494601E1,1.497786492E-3,2.999529243E-3,8.235931396E-3,8.892193544E-3
1.033194088E1,1.521840692E-3,3.003284335E-3,-1.335144043E-3,3.621922901E-3
1.034891154E1,1.546975225E-3,-1.716226339E-3,-1.336097717E-3,2.669030218E-3
1.036590947E1,1.523695886E-3,3.073826432E-3,-1.336097717E-3,3.681740784E-3
1.038291646E1,1.599665731E-3,3.026753664E-3,-1.335144043E-3,3.674612607E-3
1.039990236E1,6.497897208E-3,-1.693189144E-3,-1.336097717E-3,6.846511134E-3
1.041691544E1,6.460200995E-3,7.870227098E-3,-6.121635437E-3,1.188061833E-2
1.043390438E1,-2.975527197E-3,3.087565303E-3,-6.121635437E-3,7.474037866E-3
1.045090508E1,-2.939648926E-3,-1.784458756E-3,-1.333236694E-3,3.688271810E-3
1.046790944E1,1.818340272E-3,2.954587340E-3,8.237838745E-3,8.938564476E-3
1.048490562E1,1.792103052E-3,-1.816183329E-3,-1.569080353E-2,1.589690129E-2
1.050190165E1,1.662999392E-3,-1.749619842E-3,8.235931396E-3,8.582383267E-3
1.051889813E1,1.586470753E-3,2.988427877E-3,-1.569271088E-2,1.605331010E-2
1.053588124E1,-3.163933754E-3,1.254110038E-2,1.302242279E-2,1.835410502E-2
1.055288700E1,-3.076262772E-3,-1.952499151E-3,3.454208374E-3,5.020677352E-3
1.056988901E1,1.632876694E-3,-1.885831356E-3,-1.332283020E-3,2.828007116E-3
1.058686943E1,1.808784902E-3,-1.921355724E-3,-6.115913391E-3,6.660908891E-3
1.060387768E1,-2.890229225E-3,2.818167210E-3,8.241653442E-3,9.177164206E-3
1.062087412E1,-7.730137557E-3,2.822250128E-3,-6.115913391E-3,1.025302487E-2
1.063785714E1,1.713138074E-3,2.775356174E-3,-6.114959717E-3,6.930380674E-3
1.065487726E1,6.511785090E-3,2.830505371E-3,-6.115913391E-3,9.371206023E-3
1.067186192E1,6.575535983E-3,7.609248161E-3,3.455162048E-3,1.063374232E-2
1.068884549E1,-3.010462970E-3,-1.946166158E-3,-1.330375671E-3,3.823656552E-3
1.070585414E1,-2.923514694E-3,2.843186259E-3,-1.090240479E-2,1.164014933E-2
1.072284929E1,1.834377646E-3,1.239591837E-2,8.240699768E-3,1.499776204E-2
1.073984775E1,1.959297806E-3,-6.770342588E-3,-6.114959717E-3,9.331083485E-3
1.075684248E1,1.138016954E-2,2.805829048E-3,3.455162048E-3,1.221961866E-2
1.077383554E1,1.782372594E-3,2.861827612E-3,1.302528381E-2,1.345455045E-2
1.079083782E1,1.755803823E-3,-1.907721162E-3,3.454208374E-3,4.319004815E-3
1.080783015E1,1.779209822E-3,7.706463337E-3,-6.117820740E-3,9.999144731E-3
1.082482680E1,-3.023508936E-3,2.823382616E-3,8.240699768E-3,9.220749880E-3
1.084180616E1,1.686368138E-3,-2.047583461E-3,-1.328468323E-3,2.966692368E-3
1.085880570E1,6.485104561E-3,-2.082452178E-3,-6.114006042E-3,9.152827876E-3
1.087579127E1,1.822277904E-3,-2.168178558E-3,3.459930420E-3,4.471332411E-3
1.089279515E1,-2.876535058E-3,2.621755004E-3,-6.111145020E-3,7.245284445E-3
1.090979608E1,1.831460744E-3,2.626806498E-3,3.459930420E-3,4.714390665E-3
1.092677560E1,6.629850715E-3,-2.092421055E-3,-1.568508148E-2,1.715677497E-2
1.094379030E1,-2.907764167E-3,7.522493601E-3,3.457069397E-3,8.774641374E-3
1.096080303E1,-2.922967076E-3,2.792224288E-3,-1.328468323E-3,4.255006591E-3
1.097779096E1,1.785065979E-3,-2.129554749E-3,3.458976746E-3,4.436889012E-3
1.099478450E1,1.758627594E-3,2.711072564E-3,-6.113052368E-3,6.914629037E-3
1.101178586E1,1.680120826E-3,2.765640616E-3,-6.114959717E-3,6.918403454E-3
1.102877254E1,1.755256206E-3,-1.902520657E-3,-1.331329346E-3,2.910832703E-3
1.104577511E1,-7.768526673E-3,2.887547016E-3,8.239746094E-3,1.168680239E-2
1.106277151E1,-3.100529313E-3,2.840295434E-3,-6.115913391E-3,7.421924062E-3
1.107976676E1,1.709472388E-3,2.793624997E-3,-1.330375671E-3,3.535043974E-3
1.109676720E1,6.453797221E-3,2.797022462E-3,-6.115913391E-3,9.320902844E-3
1.111375921E1,1.638557762E-3,2.851441503E-3,-1.331329346E-3,3.547961106E-3
1.113075559E1,-3.113135695E-3,2.956926823E-3,3.452301025E-3,5.509393112E-3
1.114775070E1,6.470844150E-3,7.785871625E-3,3.450393677E-3,1.069564573E-2
1.116474779E1,-3.064543009E-3,-1.820817590E-3,-1.333236694E-3,3.805827194E-3
1.118172470E1,-3.080438823E-3,-1.855686307E-3,8.237838745E-3,8.988585106E-3
1.119874290E1,1.780427992E-3,7.707998157E-3,-1.332283020E-3,8.022352365E-3
1.121572833E1,1.701861620E-3,-1.796960831E-3,3.451347351E-3,4.247022456E-3
1.123272175E1,6.600499153E-3,-1.882910728E-3,3.454208374E-3,7.683976664E-3
1.124972532E1,1.889795065E-3,2.855464816E-3,-6.115913391E-3,7.009236857E-3
1.126672449E1,1.913540065E-3,-1.965031028E-3,-1.329421997E-3,3.048006786E-3
1.128371942E1,1.937314868E-3,2.824798226E-3,-1.329421997E-3,3.674239617E-3
1.130071839E1,6.836671382E-3,7.552534342E-3,3.458023071E-3,1.075819567E-2
1.131771188E1,-2.802100033E-3,-2.053871751E-3,-1.327514648E-3,3.719200035E-3
1.133469167E1,-2.768926322E-3,2.684831619E-3,-6.112098694E-3,7.227241815E-3
1.135168696E1,2.041283995E-3,2.638533711E-3,-6.111145020E-3,6.962384214E-3
1.136868669E1,1.910142601E-3,2.592086792E-3,3.460884094E-3,4.727079162E-3
1.138568273E1,6.656896323E-3,2.597346902E-3,8.245468140E-3,1.091092225E-2
1.140266205E1,2.046253532E-3,2.601951361E-3,-1.324653625E-3,3.565390810E-3
1.141967466E1,2.069726586E-3,-2.269253135E-3,-6.108283997E-3,6.836988468E-3
1.143668760E1,2.093214542E-3,2.521410584E-3,-1.322746277E-3,3.533937771E-3
1.145368009E1,2.167392522E-3,7.198080420E-3,-1.089191437E-2,1.323418870E-2
1.147067662E1,2.239149064E-3,2.417474985E-3,3.465652466E-3,4.782125139E-3
1.148767192E1,2.312898636E-3,2.473562956E-3,3.465652466E-3,4.845488707E-3
1.150463622E1,-2.438057214E-3,2.529159188E-3,-1.320838928E-3,3.753050047E-3
1.152165112E1,-2.353027463E-3,2.482846379E-3,-1.319885254E-3,3.666518985E-3
1.153866214E1,-2.267967910E-3,2.335652709E-3,3.468513489E-3,4.757051381E-3
1.155565463E1,2.488084137E-3,2.290040255E-3,-1.315116882E-3,3.628274997E-3
1.157264955E1,2.560079098E-3,2.244725823E-3,3.471374512E-3,4.862431492E-3
1.158965145E1,2.583559602E-3,2.148792148E-3,-6.097793579E-3,6.962411540E-3
1.160664894E1,7.327634841E-3,2.154424787E-3,-1.312255859E-3,7.749696379E-3
1.162363246E1,-2.259369940E-3,6.782427430E-3,3.476142883E-3,7.949191387E-3
1.164064410E1,2.497743815E-3,1.951873302E-3,-1.308441162E-3,3.429366097E-3
1.165761902E1,2.368137240E-3,1.958027482E-3,-6.094932556E-3,6.825697655E-3
1.167462869E1,2.492625266E-3,2.065882087E-3,-1.310348511E-3,3.492572510E-3
1.169162145E1,-2.210337669E-3,-2.803698182E-3,3.476142883E-3,4.982959507E-3
1.170862361E1,-2.278137952E-3,1.988023520E-3,-1.309394836E-3,3.294945353E-3
1.172561659E1,2.477541566E-3,-2.779722214E-3,3.476142883E-3,5.093980481E-3
1.174260831E1,2.498876303E-3,-2.812817693E-3,-1.309394836E-3,3.983822409E-3
1.175960750E1,-2.304513007E-3,1.978456974E-3,-6.094932556E-3,6.809792586E-3
1.177660571E1,2.452526242E-3,1.933977008E-3,3.478050232E-3,4.674610727E-3
1.179360157E1,2.475012094E-3,1.991480589E-3,3.476142883E-3,4.709060325E-3
1.181059760E1,2.497393638E-3,1.997634768E-3,-1.309394836E-3,3.455724886E-3
1.182757601E1,-2.203330398E-3,2.054274082E-3,-6.095886230E-3,6.799598207E-3
1.184457578E1,-2.218980342E-3,6.732434034E-3,-6.093025208E-3,9.347432694E-3
1.186157045E1,2.485014498E-3,-2.922579646E-3,3.479003906E-3,5.178825834E-3
1.187856806E1,2.455469221E-3,-3.056883812E-3,-1.303672791E-3,4.132000784E-3
1.189556358E1,2.477742732E-3,6.509542465E-3,-1.303672791E-3,7.086107175E-3
1.191255995E1,2.398513258E-3,1.629084349E-3,-1.301765442E-3,3.178266025E-3
1.192957224E1,2.369187772E-3,1.534536481E-3,3.485679626E-3,4.485288772E-3
1.194655571E1,7.165603340E-3,-3.282710910E-3,-1.298904419E-3,7.988067027E-3
1.196354530E1,2.351980656E-3,6.233841181E-3,3.486633301E-3,7.519920256E-3
1.198054773E1,2.423435450E-3,-3.217205405E-3,-6.086349487E-3,7.298431344E-3
1.199755325E1,2.444934100E-3,-3.147438169E-3,-6.087303162E-3,7.275941833E-3
1.201454942E1,-2.410028130E-3,1.593708992E-3,-6.086349487E-3,6.737343246E-3
1.203154647E1,2.450380474E-3,1.601621509E-3,3.483772278E-3,4.550409345E-3
1.204855686E1,2.471685410E-3,1.659363508E-3,-1.302719116E-3,3.249583529E-3
1.206553408E1,7.217049599E-3,1.564398408E-3,-6.086349487E-3,9.569576656E-3
1.208253717E1,2.301532775E-3,-3.202110529E-3,-1.301765442E-3,4.152729009E-3
1.209952967E1,2.324283123E-3,1.641437411E-3,-1.302719116E-3,3.129486524E-3
1.211652237E1,-2.426583320E-3,1.699030399E-3,-6.089210510E-3,6.771520918E-3
1.213352205E1,2.381555736E-3,1.705959439E-3,-1.303672791E-3,3.206504027E-3
1.215052118E1,7.126227021E-3,1.712918282E-3,3.480911255E-3,8.113811913E-3
1.216750319E1,2.463664860E-3,1.820951700E-3,-1.305580139E-3,3.330172538E-3
1.218450904E1,2.486001700E-3,1.827418804E-3,-1.305580139E-3,3.350254235E-3
1.220149356E1,2.457406372E-3,1.833766699E-3,-1.305580139E-3,3.332579464E-3
1.221848854E1,-2.346694469E-3,1.839950681E-3,-1.306533813E-3,3.255675667E-3
1.223550216E1,2.359583974E-3,6.619855762E-3,-6.092071533E-3,9.300723757E-3
1.225249030E1,2.430781722E-3,1.840129495E-3,-1.306533813E-3,3.316897186E-3
1.226947704E1,-2.218868583E-3,1.795649529E-3,-1.087665558E-2,1.124497095E-2
1.228648858E1,2.538006753E-3,-2.971842885E-3,-6.091117859E-3,7.237060535E-3
1.230347951E1,2.560243011E-3,1.820504665E-3,3.480911255E-3,4.688904421E-3
1.232045294E1,-2.292890102E-3,1.776009798E-3,-6.090164185E-3,6.745491503E-3
1.233746107E1,-2.309627831E-3,1.732036471E-3,3.481864929E-3,4.523020500E-3
1.235445715E1,7.220212370E-3,1.738548279E-3,-1.303672791E-3,7.540131268E-3
1.237144865E1,-2.318922430E-3,1.846447587E-3,-1.305580139E-3,3.239029087E-3
1.238845140E1,2.386324108E-3,-3.022640944E-3,-1.304626465E-3,4.066073196E-3
1.240544496E1,-2.364795655E-3,-3.003790975E-3,3.479957581E-3,5.169634752E-3
1.242245768E1,2.443343401E-3,-2.883553505E-3,-1.307487488E-3,3.999291352E-3
1.243943719E1,2.407439053E-3,1.810818911E-3,3.479957581E-3,4.602709276E-3
1.245644371E1,-2.406079322E-3,1.977890730E-3,-1.309394836E-3,3.378725245E-3
1.247344503E1,2.490799874E-3,6.714552641E-3,-1.307487488E-3,7.280029170E-3
1.249043834E1,2.550028265E-3,1.942560077E-3,-1.307487488E-3,3.462038032E-3
1.250743083E1,2.559274435E-3,1.956611872E-3,3.478050232E-3,4.740785701E-3
1.252443368E1,-2.306412905E-3,-2.803295851E-3,-1.309394836E-3,3.859083175E-3
1.254142646E1,2.336744219E-3,2.097770572E-3,-1.312255859E-3,3.403385132E-3
1.255842291E1,2.346564084E-3,2.060428262E-3,-1.311302185E-3,3.386922061E-3
1.257541511E1,7.128976285E-3,-2.649158239E-3,-1.313209534E-3,7.717827514E-3
1.259241756E1,2.199716866E-3,2.098813653E-3,-1.313209534E-3,3.311841228E-3
1.260939734E1,2.210825682E-3,-2.711862326E-3,-1.312255859E-3,3.736838625E-3
1.262640394E1,-7.123105228E-3,2.087801695E-3,8.259773254E-3,1.110501680E-2
1.264338528E1,2.356402576E-3,-2.621591091E-3,-1.313209534E-3,3.761634250E-3
1.266039877E1,-2.458192408E-3,-2.545326948E-3,-1.315116882E-3,3.775040609E-3
1.267739476E1,-2.539049834E-3,-2.469569445E-3,-1.317024231E-3,3.778901974E-3
1.269439122E1,-2.467267215E-3,2.379566431E-3,-1.317977905E-3,3.672439199E-3
1.271137446E1,2.329353243E-3,2.392604947E-3,-1.317977905E-3,3.589917927E-3
1.272838308E1,-2.486445010E-3,-2.419248223E-3,3.467559814E-3,4.905011908E-3
1.274537917E1,-2.365343273E-3,-2.547323704E-3,-1.315116882E-3,3.716616642E-3
1.276237479E1,2.377133816E-3,-2.573758364E-3,-6.099700928E-3,7.034298025E-3
1.277937064E1,2.388045192E-3,6.897166371E-3,-6.097793579E-3,9.510875371E-3
1.279636672E1,7.069926709E-3,2.226561308E-3,-1.315116882E-3,7.528012443E-3
1.281334631E1,-2.480458468E-3,-2.686396241E-3,-1.312255859E-3,3.884766971E-3
1.283034606E1,6.985172629E-3,2.214148641E-3,3.470420837E-3,8.107953605E-3
1.284733241E1,2.210918814E-3,-2.495586872E-3,-6.102561951E-3,6.953946951E-3
1.286433781E1,-2.502668649E-3,-2.572536469E-3,-1.315116882E-3,3.822411106E-3
1.288133254E1,-2.583123744E-3,2.226009965E-3,-1.315116882E-3,3.654747741E-3
1.289833073E1,-2.612818033E-3,-2.534747124E-3,-1.317024231E-3,3.871216072E-3
1.291534137E1,2.028550953E-3,2.263486385E-3,-1.317024231E-3,3.312543194E-3
1.293233515E1,-2.684682608E-3,-2.497598529E-3,-6.102561951E-3,7.119464971E-3
1.294933105E1,-2.663314342E-3,2.351567149E-3,-1.318931580E-3,3.789814224E-3
1.296632750E1,2.030193806E-3,2.313613892E-3,3.467559814E-3,4.636643958E-3
1.298332310E1,2.090591937E-3,2.326264977E-3,-6.103515625E-3,6.858205770E-3
1.300031768E1,-2.622801811E-3,2.338677645E-3,-6.103515625E-3,7.042826524E-3
1.301730565E1,-2.651445568E-3,7.125511765E-3,3.467559814E-3,8.356258289E-3
1.303431267E1,2.144377679E-3,-2.421006560E-3,-1.318931580E-3,3.492736593E-3
1.305129934E1,2.155900002E-3,7.202044129E-3,-1.319885254E-3,7.632787272E-3
1.306829732E1,2.217076719E-3,2.428829670E-3,-6.105422974E-3,6.934755398E-3
1.308529327E1,-2.496428788E-3,2.288654447E-3,-6.102561951E-3,6.979352279E-3
1.310231317E1,2.349697053E-3,-2.421006560E-3,-1.317977905E-3,3.622073269E-3
1.311927503E1,2.359602600E-3,2.478644252E-3,-1.319885254E-3,3.667901149E-3
1.313627140E1,2.419132739E-3,7.213726640E-3,-1.318931580E-3,7.722022776E-3
1.315329040E1,2.327032387E-3,7.265225053E-3,-1.319885254E-3,7.742136132E-3
1.317028008E1,2.384543419E-3,2.389401197E-3,-1.089000702E-2,1.140120776E-2
1.318727099E1,2.291690558E-3,7.124483585E-3,-6.103515625E-3,9.657277823E-3
1.320427621E1,2.301715314E-3,2.453446388E-3,-6.105422974E-3,6.970902542E-3
1.322126057E1,2.311453223E-3,2.516910434E-3,-1.320838928E-3,3.663641578E-3
1.323825937E1,2.270516008E-3,-2.294778824E-3,3.464698792E-3,4.735545429E-3
1.325525567E1,2.432920039E-3,2.503395081E-3,-1.319885254E-3,3.732048221E-3
1.327224609E1,-2.280309796E-3,-2.207085490E-3,-1.320838928E-3,3.437390668E-3
1.328925469E1,2.311646938E-3,2.641633153E-3,-1.323699951E-3,3.751548859E-3
1.330623155E1,-2.502679825E-3,-2.120167017E-3,-1.324653625E-3,3.537403244E-3
1.332321824E1,2.191558480E-3,2.677127719E-3,-6.111145020E-3,7.022537636E-3
1.334022894E1,2.202931792E-3,2.739921212E-3,-6.112098694E-3,7.051086950E-3
1.335722281E1,2.161171287E-3,-1.971051097E-3,3.457069397E-3,4.528469120E-3
1.337422509E1,-2.500530332E-3,-2.049013972E-3,-1.325607300E-3,3.494044206E-3
1.339120280E1,2.242393792E-3,-1.974850893E-3,-1.327514648E-3,3.269657644E-3
1.340821429E1,2.201799303E-3,2.873152494E-3,-6.114959717E-3,7.106029677E-3
1.342520781E1,6.984457374E-3,2.833589911E-3,-1.328468323E-3,7.653541969E-3
1.344220094E1,-2.564668655E-3,-1.928150654E-3,3.457069397E-3,4.716632175E-3
1.345918897E1,2.281825989E-3,2.920001745E-3,3.455162048E-3,5.066683809E-3
1.347617712E1,2.289757133E-3,-1.792207360E-3,-6.116867065E-3,6.772817556E-3
1.349318039E1,2.198081464E-3,3.004610538E-3,-1.332283020E-3,3.954013740E-3
1.351017805E1,2.207100391E-3,3.015756607E-3,3.453254700E-3,5.088324682E-3
1.352717288E1,2.165347338E-3,2.925381064E-3,3.455162048E-3,5.018438826E-3
1.354416974E1,-2.598974854E-3,2.885431051E-3,-6.114959717E-3,7.243832893E-3
1.356116578E1,-2.578891814E-3,2.896651626E-3,3.455162048E-3,5.194171580E-3
1.357816116E1,-2.608314157E-3,2.907618880E-3,-6.115913391E-3,7.256855166E-3
1.359515772E1,2.136968076E-3,2.969563007E-3,-6.116867065E-3,7.127482003E-3
1.361215584E1,-2.524677664E-3,7.652774453E-3,-1.328468323E-3,8.167238347E-3
1.362914743E1,2.220354974E-3,2.929389477E-3,-1.330375671E-3,3.909117336E-3
1.364614570E1,2.178583294E-3,-1.782283187E-3,-1.332283020E-3,3.114118908E-3
1.366314216E1,2.136960626E-3,-1.810163260E-3,-1.331329346E-3,3.100923986E-3
1.368014038E1,2.146244049E-3,-1.787051558E-3,-1.332283020E-3,3.094332696E-3
1.369712863E1,-2.718385309E-3,-6.384417415E-3,8.234024048E-3,1.076798758E-2
1.371413956E1,1.976050436E-3,3.146588802E-3,-1.336097717E-3,3.948538151E-3
1.373113495E1,6.810046732E-3,3.106340766E-3,-1.335144043E-3,7.603203211E-3
1.374813131E1,-2.789337188E-3,3.117233515E-3,-1.336097717E-3,4.391207561E-3
1.376512478E1,1.854658127E-3,-1.594722271E-3,-1.338005066E-3,2.788037562E-3
1.378212916E1,1.864481717E-3,3.201290965E-3,-1.338005066E-3,3.938884801E-3
1.379911606E1,-2.849500626E-3,3.211721778E-3,3.447532654E-3,5.506386474E-3
1.381611545E1,-2.775806934E-3,3.120854497E-3,-1.335144043E-3,4.384911235E-3
1.383311149E1,-2.752993256E-3,3.131449223E-3,-6.120681763E-3,7.405922720E-3
1.385010771E1,2.042472363E-3,3.192558885E-3,-6.121635437E-3,7.199899028E-3
1.386710073E1,-2.669725567E-3,-1.519575715E-3,-1.338005066E-3,3.350642105E-3
1.388410206E1,2.075474709E-3,3.276750445E-3,3.447532654E-3,5.189428692E-3
1.390110913E1,2.085085958E-3,3.236263990E-3,-1.338005066E-3,4.075689589E-3
1.391810802E1,2.093315125E-3,3.246188164E-3,-6.123542786E-3,7.239991854E-3
1.393510048E1,2.002291381E-3,3.307506442E-3,-1.338958740E-3,4.091647608E-3
1.395209701E1,2.062618732E-3,3.165289760E-3,3.449440002E-3,5.115866655E-3
1.396909282E1,1.969419420E-3,3.074079752E-3,-1.335144043E-3,3.887311254E-3
1.398607589E1,1.937378198E-3,-1.707196236E-3,3.450393677E-3,4.309660055E-3
1.400308130E1,1.955240965E-3,3.070086241E-3,-1.335144043E-3,3.876984185E-3
1.402008415E1,1.921232790E-3,-1.762390137E-3,-1.333236694E-3,2.928254516E-3
1.403705870E1,-2.935849130E-3,3.015160561E-3,-1.334190369E-3,4.414800931E-3
1.405407357E1,1.867741346E-3,3.058239818E-3,3.450393677E-3,4.974585917E-3
1.407105254E1,1.681990921E-3,3.049597144E-3,-1.335144043E-3,3.729845281E-3
1.408805184E1,6.522811949E-3,2.939566970E-3,3.452301025E-3,7.943960729E-3
1.410504782E1,1.704748720E-3,-1.841947436E-3,-1.333236694E-3,2.841911089E-3
1.412204542E1,1.724246889E-3,3.037512302E-3,-1.335144043E-3,3.739267032E-3
1.413903823E1,1.691732556E-3,3.029271960E-3,-1.335144043E-3,3.717668256E-3
1.415603590E1,6.482839584E-3,-1.803666353E-3,-6.119728088E-3,9.095685420E-3
1.417304513E1,1.664780080E-3,2.974048257E-3,3.451347351E-3,4.850593189E-3
1.419003171E1,1.684330404E-3,-1.807227731E-3,-1.333236694E-3,2.807233703E-3
1.420703692E1,1.702886075E-3,-1.803591847E-3,-6.119728088E-3,6.603320105E-3
1.422403355E1,-7.875394076E-3,2.973899245E-3,-6.118774414E-3,1.040698366E-2
1.424102898E1,1.713227481E-3,2.965658903E-3,-1.333236694E-3,3.675296072E-3
1.425801248E1,6.453566253E-3,3.008112311E-3,-1.335144043E-3,7.244298909E-3
1.427502103E1,1.735430211E-3,-1.723468304E-3,-6.120681763E-3,6.591267424E-3
1.429199982E1,1.804590225E-3,3.053873777E-3,-1.335144043E-3,3.790158380E-3
1.430900110E1,-2.950493246E-3,2.994269133E-3,-1.090621948E-2,1.168831388E-2
1.432598966E1,-2.921231091E-3,2.883821726E-3,-1.090240479E-2,1.164956862E-2
1.434298940E1,1.933276653E-3,-1.999378204E-3,-6.114006042E-3,6.716855046E-3
1.435999075E1,-2.924911678E-3,2.727270126E-3,-6.113052368E-3,7.304965429E-3
1.437697039E1,1.826938242E-3,2.719551325E-3,-1.328468323E-3,3.535320471E-3
1.439399484E1,1.744482666E-3,-2.162963152E-3,-6.111145020E-3,6.713249796E-3
1.441098772E1,1.711100340E-3,-2.361491323E-3,-6.108283997E-3,6.768725066E-3
1.442798576E1,1.729391515E-3,2.366930246E-3,3.464698792E-3,4.538423903E-3
1.444498133E1,1.747719944E-3,2.411171794E-3,-1.321792603E-3,3.258129848E-3
1.446197804E1,1.815702766E-3,2.353474498E-3,-1.319885254E-3,3.252340055E-3
1.447897355E1,1.833837479E-3,2.397477627E-3,-6.106376648E-3,6.811658729E-3
1.449595644E1,1.850821078E-3,7.164090872E-3,-6.106376648E-3,9.593621446E-3
1.451295274E1,1.767244190E-3,-2.350836992E-3,-1.322746277E-3,3.224785932E-3
1.452996346E1,1.785643399E-3,-2.345532179E-3,-6.107330322E-3,6.781557875E-3
1.454695937E1,1.803804189E-3,-2.390742302E-3,-1.320838928E-3,3.273220705E-3
1.456394793E1,1.822032034E-3,2.439320087E-3,3.462791443E-3,4.610966038E-3
1.458095573E1,1.738727093E-3,-2.341076732E-3,-6.108283997E-3,6.768673840E-3
1.459794025E1,1.757118851E-3,2.438068390E-3,-1.322746277E-3,3.283489279E-3
1.461494157E1,1.723505557E-3,2.329438925E-3,-1.319885254E-3,3.184156747E-3
1.463195562E1,1.742959023E-3,2.374053001E-3,-1.320838928E-3,3.227793253E-3
1.464892819E1,1.658659428E-3,2.265915275E-3,-1.318931580E-3,3.102435115E-3
1.466593556E1,6.397947669E-3,2.208575606E-3,-1.317977905E-3,6.895549749E-3
1.468292551E1,-3.091823310E-3,2.101168036E-3,3.470420837E-3,5.100793986E-3
1.469991474E1,1.711264253E-3,1.994028687E-3,3.472328186E-3,4.354496387E-3
1.471690739E1,6.553828716E-3,6.812721491E-3,-1.313209534E-3,9.544127212E-3
1.473391060E1,-2.936232835E-3,1.970618963E-3,-1.312255859E-3,3.771845410E-3
1.475091278E1,1.917023212E-3,1.964718103E-3,-1.311302185E-3,3.042138827E-3
1.476788715E1,1.933559775E-3,2.009913325E-3,3.473281860E-3,4.454446302E-3
1.478488553E1,1.899316907E-3,-2.819925547E-3,3.474235535E-3,4.861038711E-3
1.480188515E1,1.866389066E-3,-2.813234925E-3,-1.311302185E-3,3.621769224E-3
1.481888082E1,-2.939667553E-3,1.915797591E-3,-6.095886230E-3,7.033616045E-3
1.483587689E1,-2.960979939E-3,6.734430790E-3,-1.312255859E-3,7.472748872E-3
1.485287052E1,1.842889935E-3,1.892283559E-3,-6.095886230E-3,6.643553967E-3
1.486987145E1,-3.013834357E-3,1.836180687E-3,-1.309394836E-3,3.764209331E-3
1.488688119E1,1.688368618E-3,6.655246019E-3,-1.310348511E-3,6.989985793E-3
1.490387429E1,1.656189561E-3,1.812979579E-3,-1.088142395E-2,1.115505473E-2
1.492087026E1,1.522425562E-3,1.858308911E-3,-6.095886230E-3,6.552169147E-3
1.493786342E1,1.593124121E-3,1.802489161E-3,-1.309394836E-3,2.738891469E-3
1.495486510E1,1.609597355E-3,1.847907901E-3,-1.310348511E-3,2.778953126E-3
1.497185481E1,1.525569707E-3,1.791730523E-3,-1.309394836E-3,2.692986453E-3
1.498885742E1,1.544546336E-3,6.508812308E-3,-6.093025208E-3,9.048492539E-3
1.500583756E1,1.411002129E-3,1.718461514E-3,3.477096558E-3,4.127255438E-3
1.502284783E1,1.429155469E-3,1.662313938E-3,-6.093025208E-3,6.475394132E-3
1.503983690E1,1.397386193E-3,1.556217670E-3,3.480911255E-3,4.060941366E-3
1.505684564E1,1.365765929E-3,1.501217484E-3,3.480911255E-3,4.029356484E-3
1.507383450E1,1.283384860E-3,1.547768712E-3,3.479957581E-3,4.019050814E-3
1.509083043E1,1.353606582E-3,1.644834876E-3,-1.306533813E-3,2.498952411E-3
1.510782618E1,6.197102368E-3,1.589328051E-3,-1.305580139E-3,6.529516131E-3
1.512482243E1,1.532111317E-3,-3.239139915E-3,3.480911255E-3,4.995611638E-3
1.514180878E1,1.550976187E-3,1.491308212E-3,-1.302719116E-3,2.515274222E-3
1.515880099E1,6.343219429E-3,1.537486911E-3,-6.090164185E-3,8.926947884E-3
1.517580112E1,-3.247879446E-3,1.482278109E-3,-1.302719116E-3,3.800387662E-3
1.519279988E1,1.556642354E-3,1.477852464E-3,-1.302719116E-3,2.510828632E-3
1.520980904E1,-3.299470991E-3,1.473322511E-3,-1.302719116E-3,3.841128107E-3
1.522679839E1,1.403581351E-3,1.468837261E-3,-6.088256836E-3,6.418285971E-3
1.524379174E1,1.269415021E-3,-3.308743238E-3,3.480911255E-3,4.967488246E-3
1.526079339E1,1.186367124E-3,-3.351733088E-3,-1.302719116E-3,3.786642147E-3
1.527777029E1,1.204915345E-3,-3.394335508E-3,3.482818604E-3,5.010325334E-3
1.529476667E1,-3.650531173E-3,1.387506723E-3,3.482818604E-3,5.232740981E-3
1.531176791E1,1.154784113E-3,6.156861782E-3,-1.302719116E-3,6.398245888E-3
1.532876139E1,5.896262825E-3,1.315921545E-3,-6.087303162E-3,8.576294339E-3
1.534575770E1,-3.642886877E-3,-3.461331129E-3,-1.301765442E-3,5.190956680E-3
1.536275315E1,1.109849662E-3,1.320004463E-3,-1.301765442E-3,2.160733977E-3
1.537976574E1,5.903217942E-3,-3.406181931E-3,3.482818604E-3,7.653762659E-3
1.539675513E1,1.136437058E-3,1.273602247E-3,-1.299858093E-3,2.145502956E-3
1.541375842E1,-3.618307412E-3,1.168280840E-3,3.487586975E-3,5.159485590E-3
1.543075047E1,1.133933663E-3,-3.710389137E-3,-1.296043396E-3,4.090540501E-3
1.544774805E1,-3.619696945E-3,-3.650590777E-3,-1.296997070E-3,5.302001546E-3
1.546474099E1,1.134876162E-3,1.030087471E-3,-1.295089722E-3,2.006559615E-3
1.548173876E1,1.206319779E-3,9.850859642E-4,-1.294136047E-3,2.024941944E-3
1.549873447E1,1.227762550E-3,-3.772869706E-3,3.491401672E-3,5.285057458E-3
1.551572542E1,1.198392361E-3,-3.847390413E-3,-6.077766418E-3,7.292311148E-3
1.553272968E1,5.991391838E-3,9.019821882E-4,-6.077766418E-3,8.581934086E-3
1.554972228E1,-3.543820232E-3,-3.855600953E-3,-1.292228699E-3,5.393901701E-3
1.556671837E1,1.267414540E-3,-3.725245595E-3,3.490447998E-3,5.259945017E-3
1.558371506E1,6.064318120E-3,-3.646820784E-3,-1.296997070E-3,7.194265598E-3
1.560071081E1,1.199632883E-3,1.103013754E-3,-1.296043396E-3,2.082183200E-3
1.561769456E1,1.071214676E-3,1.168876886E-3,-6.083488464E-3,6.286700721E-3
1.563468948E1,1.094173640E-3,1.234486699E-3,-1.299858093E-3,2.100191522E-3
1.565169571E1,1.016542315E-3,-3.473356366E-3,-6.087303162E-3,7.081865750E-3
1.566869896E1,-3.835469484E-3,-3.497004509E-3,8.270263672E-3,9.764073325E-3
1.568566020E1,9.743161500E-4,1.252412796E-3,-6.085395813E-3,6.288868895E-3
1.570268668E1,9.466968477E-4,1.266777515E-3,-1.300811768E-3,2.047699062E-3
1.571968292E1,9.189471602E-4,-3.441005945E-3,3.482818604E-3,4.981466774E-3
1.573667876E1,5.816020072E-3,1.308038831E-3,-1.301765442E-3,6.101774194E-3
1.575367414E1,5.825556815E-3,-3.501862288E-3,-1.300811768E-3,6.920423610E-3
1.577065572E1,-8.585456759E-3,1.247584820E-3,-1.299858093E-3,8.772466398E-3
1.578765393E1,1.059602946E-3,1.262247562E-3,-1.299858093E-3,2.098966025E-3
1.580463966E1,1.133196056E-3,1.276567578E-3,-6.085395813E-3,6.320269004E-3
1.582164242E1,1.104068011E-3,1.138031483E-3,-1.086997986E-2,1.098501452E-2
1.583864551E1,1.077070832E-3,1.203984022E-3,-1.298904419E-3,2.072875248E-3
1.585563790E1,5.874264985E-3,1.269802451E-3,-1.299858093E-3,6.148903841E-3
1.587264839E1,1.112334430E-3,1.233845949E-3,-1.299858093E-3,2.109335150E-3
1.588964502E1,1.185644418E-3,-3.676906228E-3,3.489494324E-3,5.205954546E-3
1.590663884E1,5.982693285E-3,5.897656083E-3,3.488540649E-3,9.096421388E-3
1.592364048E1,1.066517085E-3,1.177683473E-3,-1.298904419E-3,2.052206068E-3
1.594062597E1,-3.785677254E-3,-3.682076931E-3,-1.296997070E-3,5.437944851E-3
1.595762734E1,-3.800012171E-3,1.017212868E-3,-1.295089722E-3,4.141505995E-3
1.597461995E1,1.111250371E-3,1.083448529E-3,-1.296043396E-3,2.021995694E-3
1.599161915E1,1.033280045E-3,1.201078296E-3,8.272171021E-3,8.422533474E-3
1.600861839E1,1.007653773E-3,1.267105341E-3,-1.300811768E-3,2.076784371E-3
1.602558256E1,1.031398773E-3,1.180678606E-3,3.486633301E-3,3.822878127E-3
1.604260488E1,1.055836678E-3,1.246124506E-3,-1.087188721E-2,1.099388688E-2
1.605961050E1,1.130793244E-3,1.210391521E-3,3.486633301E-3,3.860097508E-3
1.607659365E1,1.153495163E-3,1.276209950E-3,3.485679626E-3,3.887058706E-3
1.609359271E1,-3.648094833E-3,-3.533646464E-3,-6.085395813E-3,7.926367103E-3
1.611058181E1,-3.765303642E-3,-3.405153751E-3,-1.302719116E-3,5.241150702E-3
1.612760301E1,9.426847100E-4,1.394867897E-3,-6.089210510E-3,6.317657442E-3
1.614457964E1,-3.909006715E-3,-3.414839506E-3,-1.303672791E-3,5.351731037E-3
1.616158346E1,5.573105067E-3,1.435905695E-3,-6.090164185E-3,8.379225802E-3
1.617857464E1,-4.062633961E-3,1.450359821E-3,-1.305580139E-3,4.507003197E-3
1.619556813E1,-4.025496542E-3,1.413986087E-3,-1.304626465E-3,4.461617339E-3
1.621256786E1,-4.039146006E-3,1.428201795E-3,-6.091117859E-3,7.446890465E-3
1.622956197E1,8.219406009E-4,1.442983747E-3,3.479957581E-3,3.855890715E-3
1.624656089E1,7.429011166E-4,6.230518222E-3,3.479957581E-3,7.175051508E-3
1.626353833E1,6.664134562E-4,1.408755779E-3,-1.304626465E-3,2.032424649E-3
1.628053846E1,6.397180259E-4,-3.401055932E-3,-1.304626465E-3,3.698441674E-3
1.629753476E1,-4.058968276E-3,1.551285386E-3,-1.307487488E-3,4.537756422E-3
1.631453018E1,8.010528982E-4,1.514703035E-3,3.478050232E-3,3.877221227E-3
1.633152385E1,8.235201240E-4,1.528233290E-3,-6.092071533E-3,6.334589012E-3
1.634853058E1,8.482262492E-4,1.643657684E-3,-6.094932556E-3,6.369403521E-3
1.636552966E1,7.691867650E-4,-3.217980266E-3,-6.093025208E-3,6.933397540E-3
1.638252755E1,6.913468242E-4,-3.191888332E-3,-1.309394836E-3,3.518611430E-3
1.639951049E1,6.146654487E-4,1.607775688E-3,-1.309394836E-3,2.162699960E-3
1.641651961E1,6.397441030E-4,-3.151521087E-3,-1.310348511E-3,3.472516508E-3
1.643348484E1,6.152763963E-4,1.648381352E-3,-1.310348511E-3,2.193795648E-3
1.645051776E1,5.361992866E-3,1.661941409E-3,-1.311302185E-3,5.764766271E-3
1.646747995E1,6.003379822E-4,1.726180315E-3,-1.312255859E-3,2.249915468E-3
1.648450130E1,-4.199001938E-3,-3.084585071E-3,-1.311302185E-3,5.372689806E-3
1.650149067E1,-4.263821989E-3,-3.058895469E-3,-1.312255859E-3,5.409162124E-3
1.651848254E1,4.950612783E-4,1.638561487E-3,-1.310348511E-3,2.155686117E-3
1.653549913E1,5.195289850E-4,6.425082684E-3,-1.088237762E-2,1.264823073E-2
1.655248777E1,4.928782582E-4,1.703843474E-3,-1.312255859E-3,2.206360579E-3
1.656948384E1,5.690120161E-4,1.717552543E-3,-1.312255859E-3,2.235123453E-3
1.658646438E1,6.943531334E-4,-3.093108535E-3,-1.311302185E-3,3.430591801E-3
1.660346460E1,7.180683315E-4,1.807823777E-3,3.472328186E-3,3.980064317E-3
1.662046196E1,-4.030566663E-3,1.770779490E-3,3.473281860E-3,5.607567611E-3
1.663746806E1,-4.044719040E-3,-3.090560436E-3,3.475189209E-3,6.163461362E-3
1.665446711E1,-4.057481885E-3,1.658499241E-3,3.475189209E-3,5.593810778E-3
1.667145170E1,-4.073288292E-3,-3.101557493E-3,-6.095886230E-3,7.960600814E-3
1.668846045E1,-3.986857831E-3,1.748397946E-3,-1.312255859E-3,4.546861136E-3
1.670544501E1,8.224248886E-4,6.484374404E-3,-1.310348511E-3,6.666371376E-3
1.672245515E1,5.619354546E-3,-3.112137318E-3,-6.095886230E-3,8.855640752E-3
1.673944391E1,8.582472801E-4,1.585617661E-3,-1.308441162E-3,2.227732039E-3
1.675641937E1,-3.994908184E-3,1.700341702E-3,-1.310348511E-3,4.535136880E-3
1.677342720E1,6.629228592E-4,1.765027642E-3,-1.312255859E-3,2.297129673E-3
1.679040526E1,4.831291735E-4,1.829028130E-3,-1.315116882E-3,2.303972680E-3
1.680741471E1,4.566907883E-4,1.791268587E-3,-1.314163208E-3,2.268090511E-3
1.682441081E1,4.821158946E-4,-3.070145845E-3,-1.312255859E-3,3.373462122E-3
1.684139709E1,5.074068904E-4,6.502404809E-3,-1.312255859E-3,6.652874980E-3
1.685841871E1,4.302226007E-4,6.605476141E-3,-1.315116882E-3,6.748847231E-3
1.687540956E1,3.545098007E-4,1.832678914E-3,-1.088714600E-2,1.104601001E-2
1.689240802E1,4.309974611E-4,1.744329929E-3,-1.313209534E-3,2.225525779E-3
1.690940112E1,6.087161601E-4,1.758277416E-3,3.472328186E-3,3.939433699E-3
1.692638688E1,5.830079317E-4,-3.001764417E-3,-6.098747253E-3,6.822404702E-3
1.694338304E1,5.277965218E-3,1.746222377E-3,-1.313209534E-3,5.712331285E-3
1.696038093E1,4.639625549E-4,1.708388329E-3,-1.312255859E-3,2.203603271E-3
1.697737331E1,4.386641085E-4,1.722425222E-3,3.472328186E-3,3.900799646E-3
1.699436158E1,4.124231637E-4,-2.987265587E-3,-1.088619232E-2,1.129615119E-2
1.701135668E1,3.860667348E-4,1.862362027E-3,-1.316070557E-3,2.312894627E-3
1.702835504E1,-4.412341863E-3,1.824602485E-3,-6.100654602E-3,7.746994354E-3
1.704534691E1,-4.527587444E-3,-2.935141325E-3,3.468513489E-3,6.414412559E-3
1.706234600E1,-4.590582103E-3,1.965478063E-3,-1.319885254E-3,5.165137475E-3
1.707934243E1,1.197159290E-4,1.826152205E-3,-1.316070557E-3,2.254152943E-3
1.709633617E1,-4.627045244E-3,1.889795065E-3,-1.089000702E-2,1.198220038E-2
1.711333292E1,8.219480515E-5,1.852333546E-3,3.468513489E-3,3.932999030E-3
1.713032835E1,5.777180195E-5,1.916423440E-3,-1.318931580E-3,2.327143505E-3
1.714732748E1,1.341439784E-4,1.878350973E-3,-6.102561951E-3,6.386506036E-3
1.716432206E1,2.619698644E-4,6.715729833E-3,-1.317977905E-3,6.848848163E-3
1.718131781E1,3.377087414E-4,1.942455769E-3,-1.089000702E-2,1.106704272E-2
1.719831417E1,4.120506346E-4,1.904621720E-3,3.468513489E-3,3.978436306E-3
1.721532148E1,3.882236779E-4,1.915231347E-3,-6.102561951E-3,6.407814846E-3
1.723230794E1,-4.407674074E-3,1.872986555E-3,-1.317024231E-3,4.966912744E-3
1.724931293E1,-4.368003458E-3,-2.891808748E-3,-1.317024231E-3,5.401533566E-3
1.726629702E1,3.952309489E-4,6.624832749E-3,-6.101608276E-3,9.015222683E-3
1.728330031E1,-4.300825298E-3,1.949071884E-3,-1.317977905E-3,4.902350988E-3
1.730030190E1,6.651170552E-4,1.906588674E-3,-6.101608276E-3,6.427058785E-3
1.731729328E1,6.420649588E-4,6.688535213E-3,-1.316070557E-3,6.846954975E-3
1.733429301E1,6.699226797E-4,1.910880208E-3,-1.088809967E-2,1.107479002E-2
1.735128712E1,6.974227726E-4,1.868709922E-3,3.470420837E-3,4.002786040E-3
1.736829942E1,7.248744369E-4,2.029836178E-3,-1.317977905E-3,2.526409234E-3
1.738529242E1,7.523596287E-4,-2.836734056E-3,-1.316070557E-3,3.216387232E-3
1.740228319E1,5.552906543E-3,1.957401633E-3,-1.317024231E-3,6.033302997E-3
1.741928443E1,5.516998470E-3,2.016648650E-3,-1.317977905E-3,6.020067247E-3
1.743628062E1,7.058158517E-4,2.024173737E-3,-6.103515625E-3,6.469030709E-3
1.745327706E1,7.319562137E-4,2.032205462E-3,-1.317977905E-3,2.530352683E-3
1.747027202E1,7.066763937E-4,-2.733200788E-3,-1.317977905E-3,3.115580818E-3
1.748726934E1,-4.040297121E-3,2.060204744E-3,-1.318931580E-3,4.723137191E-3
1.750425002E1,7.200054824E-4,2.017334104E-3,-1.317977905E-3,2.514977244E-3
1.752126023E1,-3.976203501E-3,-2.697050571E-3,-1.318931580E-3,4.982354522E-3
1.753824304E1,5.711447448E-3,2.096697688E-3,-1.318931580E-3,6.225460116E-3
1.755522873E1,-3.721386194E-3,-2.668783069E-3,-1.317977905E-3,4.765310487E-3
1.757224878E1,1.089524478E-3,2.073362470E-3,-6.102561951E-3,6.536601401E-3
1.758924441E1,1.064945012E-3,-2.793863416E-3,-6.101608276E-3,6.794807151E-3
1.760624002E1,1.091487706E-3,-2.772942185E-3,3.469467163E-3,4.573593354E-3
1.762323660E1,-3.707140684E-3,-2.803295851E-3,-1.316070557E-3,4.830465960E-3
1.764020425E1,5.928862840E-3,1.889318228E-3,-1.313209534E-3,6.359674301E-3
1.765721606E1,1.064516604E-3,1.846194267E-3,-1.312255859E-3,2.502727375E-3
1.767422405E1,-3.733143210E-3,-3.019616008E-3,3.475189209E-3,5.927172944E-3
1.769121380E1,1.077875495E-3,1.723960042E-3,-1.310348511E-3,2.418856554E-3
1.770822366E1,1.001842320E-3,-3.040373325E-3,-1.310348511E-3,3.458984130E-3
1.772521263E1,-3.694094718E-3,-3.018811345E-3,3.474235535E-3,5.901683681E-3
1.774217264E1,-3.656636924E-3,-2.997905016E-3,-1.311302185E-3,4.906927908E-3
1.775918894E1,5.928523839E-3,1.795768738E-3,-1.088333130E-2,1.252274253E-2
1.777618999E1,5.790464580E-3,1.855522394E-3,-1.313209534E-3,6.220688281E-3
1.779318363E1,1.030493528E-3,1.864030957E-3,-1.313209534E-3,2.502208544E-3
1.781017905E1,1.106735319E-3,-2.900779247E-3,-1.313209534E-3,3.371038799E-3
1.782716506E1,5.905289203E-3,1.893162727E-3,-1.313209534E-3,6.338850445E-3
1.784418775E1,-3.576427698E-3,1.800328493E-3,-1.311302185E-3,4.213256601E-3
1.786118079E1,1.235455275E-3,-3.065809608E-3,-6.094932556E-3,6.933522997E-3
1.787817652E1,1.158960164E-3,1.626983285E-3,-1.307487488E-3,2.387422627E-3
1.789517273E1,1.185309142E-3,1.687064767E-3,-1.309394836E-3,2.442470087E-3
1.791216307E1,5.882505327E-3,1.746550202E-3,-6.095886230E-3,8.649516488E-3
1.792915699E1,1.123100519E-3,-2.966955304E-3,-1.312255859E-3,3.433102677E-3
1.794615980E1,-3.571979702E-3,-2.894774079E-3,-1.313209534E-3,4.781555734E-3
1.796315725E1,1.239743084E-3,-2.924561501E-3,3.473281860E-3,4.706772755E-3
1.798012566E1,1.314200461E-3,-2.954602242E-3,3.474235535E-3,4.746273255E-3
1.799713805E1,1.339264214E-3,1.788780093E-3,3.475189209E-3,4.131622308E-3
1.801414239E1,1.366615295E-3,1.797810197E-3,-6.095886230E-3,6.500737482E-3
1.803114048E1,1.442000270E-3,1.806437969E-3,-1.310348511E-3,2.656990052E-3
1.804813685E1,6.290532649E-3,1.865327358E-3,-6.096839905E-3,8.956656965E-3
1.806513285E1,1.477438956E-3,1.924037933E-3,-6.097793579E-3,6.562608808E-3
1.808212808E1,1.553535461E-3,1.932650805E-3,-1.312255859E-3,2.805463777E-3
1.809912483E1,1.476287842E-3,-7.707178593E-3,-1.311302185E-3,7.956100871E-3
1.811612330E1,1.500736922E-3,-3.002837300E-3,-1.088142395E-2,1.138747691E-2
1.813311116E1,1.525077969E-3,1.791492105E-3,-1.309394836E-3,2.692549277E-3
1.815011538E1,-3.272481263E-3,1.698926091E-3,-6.093025208E-3,7.121828393E-3
1.816710894E1,6.362780929E-3,-3.065511584E-3,-6.093025208E-3,9.327770291E-3
1.818410495E1,1.451402903E-3,-2.992972732E-3,-1.309394836E-3,3.574768663E-3
1.820108801E1,1.526519656E-3,1.902803779E-3,-1.312255859E-3,2.770007206E-3
1.821809267E1,1.552000642E-3,1.962006092E-3,-6.098747253E-3,6.591880760E-3
1.823508784E1,1.525551081E-3,-2.802640200E-3,3.472328186E-3,4.715841518E-3
1.825207218E1,1.499295235E-3,2.042025328E-3,-1.315116882E-3,2.854345118E-3
1.826907518E1,1.423437148E-3,2.152085304E-3,-1.317977905E-3,2.897362634E-3
1.828606739E1,1.396182925E-3,-2.613663673E-3,-1.317977905E-3,3.243089625E-3
1.830306358E1,-3.504771739E-3,-2.695202827E-3,-1.317024231E-3,4.613252221E-3
1.832004718E1,1.256112009E-3,2.098500729E-3,-1.317024231E-3,2.777782481E-3
1.833706161E1,1.231372356E-3,6.930083036E-3,-6.103515625E-3,9.316395857E-3
1.835404616E1,1.256268471E-3,2.254292369E-3,3.464698792E-3,4.320206277E-3
1.837106389E1,1.180950552E-3,7.086142898E-3,-1.322746277E-3,7.304637095E-3
1.838805666E1,1.204986125E-3,-2.516731620E-3,-6.106376648E-3,6.713699828E-3
1.840504029E1,1.180674881E-3,2.225533128E-3,-6.105422974E-3,6.604784672E-3
1.842204547E1,1.258797944E-3,2.284049988E-3,-6.106376648E-3,6.639976836E-3
1.843904796E1,1.335553825E-3,-2.532392740E-3,-1.319885254E-3,3.152588475E-3
1.845604221E1,1.310784370E-3,2.261027694E-3,-1.320838928E-3,2.928313059E-3
1.847303248E1,1.335792243E-3,2.217680216E-3,-1.319885254E-3,2.905949680E-3
1.849002299E1,1.258250326E-3,-2.446576953E-3,-1.322746277E-3,3.052636628E-3
1.850702785E1,1.334968954E-3,-2.477243543E-3,3.464698792E-3,4.463520516E-3
1.852402539E1,6.032403558E-3,-2.406492829E-3,-1.323699951E-3,6.628218614E-3
1.854100808E1,1.271810383E-3,2.437025309E-3,-1.324653625E-3,3.051442484E-3
1.855800347E1,1.293290406E-3,-2.382412553E-3,-6.109237671E-3,6.683657275E-3
1.857500987E1,1.309853047E-3,2.405688167E-3,-1.323699951E-3,3.042241299E-3
1.859201161E1,1.325979829E-3,-2.416104078E-3,-6.108283997E-3,6.701262180E-3
1.860900504E1,1.391850412E-3,7.094606757E-3,3.464698792E-3,8.017158494E-3
1.862600056E1,-3.314528614E-3,2.260506153E-3,-6.105422974E-3,7.305626441E-3
1.864299837E1,1.537740231E-3,2.212777734E-3,3.467559814E-3,4.391469160E-3
1.865998955E1,1.603092998E-3,2.113908529E-3,-1.316070557E-3,2.961512813E-3
1.867699165E1,1.567907631E-3,-2.757743001E-3,-1.314163208E-3,3.433730586E-3
1.869398466E1,-3.139067441E-3,1.929983497E-3,3.473281860E-3,5.063819466E-3
1.871097770E1,6.434254348E-3,1.984193921E-3,-1.313209534E-3,6.860114709E-3
1.872796373E1,1.661811024E-3,1.987352967E-3,-1.313209534E-3,2.904428855E-3
1.874495993E1,6.447199732E-3,2.040848136E-3,-1.314163208E-3,6.889010846E-3
1.876195549E1,1.626241952E-3,1.993432641E-3,-1.313209534E-3,2.888417536E-3
1.877895191E1,1.591011882E-3,1.996964216E-3,-1.313209534E-3,2.871185150E-3
1.879594793E1,1.658346504E-3,6.824970245E-3,3.471374512E-3,7.834588246E-3
1.881294617E1,1.670572907E-3,-2.833113074E-3,-6.097793579E-3,6.928234267E-3
1.882995300E1,1.634173095E-3,-2.817422152E-3,-6.097793579E-3,6.913137914E-3
1.884695452E1,1.648508012E-3,1.971259713E-3,-6.098747253E-3,6.618017950E-3
1.886394456E1,1.664057374E-3,2.126902342E-3,-1.316070557E-3,3.004137518E-3
1.888093837E1,-2.994529903E-3,-2.694487572E-3,-1.314163208E-3,4.237274779E-3
1.889793955E1,1.805048436E-3,2.043247223E-3,-1.313209534E-3,3.026149096E-3
1.891493373E1,1.821219921E-3,1.894220710E-3,-6.095886230E-3,6.638127977E-3
1.893192862E1,1.836258918E-3,1.898020506E-3,-1.310348511E-3,2.948108186E-3
1.894892492E1,1.848928630E-3,1.749202609E-3,3.478050232E-3,4.309881699E-3
1.896592510E1,1.862645149E-3,1.753002405E-3,-1.306533813E-3,2.872193411E-3
1.898289954E1,1.825716347E-3,-3.016576171E-3,-1.307487488E-3,3.760650941E-3
1.899991162E1,1.738354564E-3,-3.051549196E-3,-1.307487488E-3,3.747446146E-3
1.901690958E1,1.753684133E-3,1.687452197E-3,-1.305580139E-3,2.761782478E-3
1.903389391E1,1.717194915E-3,-3.030955791E-3,-1.307487488E-3,3.720883620E-3
1.905089780E1,6.453949958E-3,1.758337021E-3,-6.093978882E-3,9.048856157E-3
1.906789870E1,1.631934196E-3,1.812770963E-3,-6.094932556E-3,6.564872478E-3
1.908490955E1,-3.176305443E-3,-2.905875444E-3,-6.096839905E-3,7.463543742E-3
1.910188878E1,1.472916454E-3,-2.940446138E-3,-1.310348511E-3,3.540158131E-3
1.911888509E1,-3.284398466E-3,1.747459173E-3,-1.308441162E-3,3.943717171E-3
1.913586812E1,-3.205478191E-3,-3.021731973E-3,-1.309394836E-3,4.595701186E-3
1.915287433E1,1.492206007E-3,1.767441630E-3,-1.309394836E-3,2.658014959E-3
1.916987581E1,6.228331476E-3,1.770913601E-3,-1.309394836E-3,6.606266934E-3
1.918686880E1,1.306381077E-3,1.673489809E-3,-1.307487488E-3,2.493335755E-3
1.920386544E1,-3.501009196E-3,1.830101013E-3,-1.311302185E-3,4.162433006E-3
1.922084690E1,-3.524992615E-3,1.732140779E-3,-1.309394836E-3,4.140096551E-3
1.923784257E1,-3.445431590E-3,1.685574651E-3,-1.307487488E-3,4.052367737E-3
1.925482969E1,1.355323941E-3,1.689970493E-3,3.478050232E-3,4.097528117E-3
1.927183486E1,1.267671585E-3,-3.079578280E-3,-1.308441162E-3,3.578101718E-3
1.928883321E1,1.281667501E-3,-3.164768219E-3,-1.306533813E-3,3.655880204E-3
1.930581739E1,-3.627251834E-3,1.574561000E-3,-1.306533813E-3,4.164520238E-3
1.932284007E1,1.123208553E-3,-3.245308995E-3,-1.305580139E-3,3.673985224E-3
1.933983358E1,1.089725643E-3,1.544609666E-3,-6.091117859E-3,6.377698470E-3
1.935682933E1,-3.616947681E-3,-3.275275230E-3,-6.090164185E-3,7.803834836E-3
1.937382776E1,1.184504479E-3,6.237059832E-3,-6.089210510E-3,8.796729554E-3
1.939081794E1,1.202344894E-3,1.405641437E-3,-6.088256836E-3,6.363044271E-3
1.940781639E1,1.268595457E-3,1.410409808E-3,-1.302719116E-3,2.301231704E-3
1.942480147E1,1.234468073E-3,1.364320517E-3,-6.087303162E-3,6.359287828E-3
1.944180400E1,1.199495047E-3,1.470729709E-3,-1.304626465E-3,2.303016382E-3
1.945879450E1,1.113779843E-3,1.424178481E-3,-6.089210510E-3,6.351950450E-3
1.947578284E1,1.180354506E-3,1.530423760E-3,-1.305580139E-3,2.332375001E-3
1.949279184E1,-3.525540233E-3,1.484781504E-3,3.480911255E-3,5.172113031E-3
1.950977317E1,1.226603985E-3,1.387923956E-3,-6.087303162E-3,6.362872781E-3
1.952677677E1,1.193318516E-3,1.342684031E-3,-1.301765442E-3,2.218423484E-3
1.954378985E1,-3.663733602E-3,1.347765326E-3,-6.087303162E-3,7.231505726E-3
1.956077628E1,-3.738105297E-3,-3.421083093E-3,-1.302719116E-3,5.232047193E-3
1.957776400E1,1.013133675E-3,1.369535923E-3,-6.088256836E-3,6.322099318E-3
1.959477330E1,-3.743980080E-3,1.272767782E-3,-1.300811768E-3,4.162863909E-3
1.961177902E1,-3.715664148E-3,1.176223159E-3,-1.298904419E-3,4.108139928E-3
1.962876507E1,-3.533918411E-3,1.181602478E-3,-6.082534790E-3,7.133161516E-3
1.964576062E1,1.318890601E-3,1.085624099E-3,-1.295089722E-3,2.143667299E-3
1.966276020E1,1.383755356E-3,1.091063023E-3,-1.295089722E-3,2.186882437E-3
1.967972932E1,-3.422867507E-3,-3.625422716E-3,-1.296997070E-3,5.151884436E-3
1.969674932E1,1.532111317E-3,5.888342857E-3,-1.294136047E-3,6.220509208E-3
1.971372845E1,-3.226310015E-3,-3.664776683E-3,-1.295089722E-3,5.051427702E-3
1.973071801E1,-3.248784691E-3,1.025170088E-3,-1.292228699E-3,3.643546444E-3
1.974772387E1,1.400504261E-3,9.293556213E-4,-6.076812744E-3,6.304979555E-3
1.976472020E1,1.466184855E-3,9.864419699E-4,3.493309021E-3,3.914840189E-3
1.978171718E1,1.482181251E-3,9.922832251E-4,-6.077766418E-3,6.334092824E-3
1.979870972E1,1.446239650E-3,9.981393814E-4,-1.293182373E-3,2.181791008E-3
1.981570856E1,1.409329474E-3,8.515864611E-4,3.496170044E-3,3.864532836E-3
1.983273279E1,-3.346670419E-3,9.600818157E-4,-1.292228699E-3,3.713733296E-3
1.984970455E1,1.453656703E-3,9.153932333E-4,3.494262695E-3,3.893704453E-3
1.986671169E1,6.189923733E-3,9.211748838E-4,-1.291275024E-3,6.389922549E-3
1.988370738E1,6.142716855E-3,9.274333715E-4,-1.291275024E-3,6.345115776E-3
1.990067365E1,1.373458654E-3,-3.839701414E-3,-1.292228699E-3,4.277797404E-3
1.991769398E1,1.389566809E-3,9.521543980E-4,-1.292228699E-3,2.123051795E-3
1.993469603E1,1.356247813E-3,9.075254202E-4,-6.076812744E-3,6.292111223E-3
1.995168843E1,1.421991736E-3,9.646266699E-4,3.493309021E-3,3.893041616E-3
1.996868555E1,1.488734037E-3,9.709745646E-4,-1.292228699E-3,2.197493037E-3
1.998568401E1,1.454152167E-3,9.769350290E-4,-6.077766418E-3,6.325203966E-3
2.000267744E1,1.368433237E-3,9.828954935E-4,-1.292228699E-3,2.123334191E-3
2.001967008E1,1.281201839E-3,5.711063743E-3,-1.292228699E-3,5.993962148E-3
2.003666270E1,-3.374271095E-3,5.755692720E-3,-1.292228699E-3,6.795848668E-3
2.005364952E1,1.479256898E-3,8.749514818E-4,-1.289367676E-3,2.148536728E-3
2.007064870E1,1.443516463E-3,9.319633245E-4,-1.291275024E-3,2.149345623E-3
2.008764391E1,1.561038196E-3,9.379237890E-4,-6.076812744E-3,6.343831209E-3
2.010465622E1,1.525998116E-3,5.726665258E-3,3.494262695E-3,6.879915480E-3
2.012165440E1,1.542117447E-3,1.040127873E-2,-1.288414001E-3,1.059361771E-2
2.013864547E1,1.507379115E-3,8.454471827E-4,-1.289367676E-3,2.156256417E-3
2.015564086E1,1.572970301E-3,8.098185062E-4,-1.288414001E-3,2.188618793E-3
2.017264214E1,1.538131386E-3,8.253157139E-4,-1.288414001E-3,2.169563280E-3
2.018962841E1,1.603558660E-3,7.395744324E-4,3.499031067E-3,3.919386320E-3
2.020661267E1,1.720804721E-3,-4.119649529E-3,-1.284599304E-3,4.645737456E-3
2.022361202E1,-2.936441451E-3,6.820112467E-4,3.500938416E-3,4.619999732E-3
2.024060834E1,1.812577248E-3,-4.177108407E-3,-1.282691956E-3,4.730641561E-3
2.025760367E1,1.623682678E-3,5.224794149E-4,-6.067276001E-3,6.302473185E-3
2.027460000E1,1.535765827E-3,5.381554365E-4,-1.282691956E-3,2.072073020E-3
2.029159360E1,-3.374554217E-3,5.540698767E-4,-1.283645630E-3,3.652718945E-3
2.030859856E1,1.325950027E-3,6.210654974E-4,-1.284599304E-3,1.947835003E-3
2.032559985E1,-3.379020840E-3,5.356222391E-4,-1.282691956E-3,3.653761305E-3
2.034259487E1,-3.402061760E-3,6.023794413E-4,-1.284599304E-3,3.686065733E-3
2.035957993E1,1.450534910E-3,-4.154771566E-3,-1.284599304E-3,4.584361860E-3
2.037659174E1,-3.459814936E-3,6.466805935E-4,-1.286506653E-3,3.747481094E-3
2.039358607E1,1.189235598E-3,6.620585918E-4,-6.072044373E-3,6.222726553E-3
2.041058151E1,1.054942608E-3,6.274133921E-4,-1.286506653E-3,1.778103157E-3
2.042757738E1,-3.752667457E-3,6.936788559E-4,-6.072998047E-3,7.172517597E-3
2.044456068E1,-3.825664520E-3,6.075352430E-4,-6.072044373E-3,7.202397584E-3
2.046156879E1,-3.897219896E-3,6.238222122E-4,3.498077393E-3,5.273900124E-3
2.047856277E1,9.061321616E-4,5.887150764E-4,-6.072044373E-3,6.167445484E-3
2.049554766E1,8.729100227E-4,-4.270225763E-3,-6.070137024E-3,7.472841726E-3
2.051254516E1,7.892958820E-4,-4.292562604E-3,-6.070137024E-3,7.476339023E-3
2.052954130E1,-3.915410489E-3,-4.365384579E-3,-1.283645630E-3,6.002896627E-3
2.054652385E1,8.857101202E-4,4.363209009E-4,-1.283645630E-3,1.619445723E-3
2.056352322E1,9.540505707E-4,4.017204046E-4,-6.068229675E-3,6.155891744E-3
2.058051951E1,9.715184569E-4,-4.354968667E-3,-1.282691956E-3,4.642725369E-3
2.059751395E1,5.660749972E-3,3.963857889E-4,-1.282691956E-3,5.817775399E-3
2.061451032E1,8.421838284E-4,-4.360556602E-3,-6.069183350E-3,7.520552773E-3
2.063150627E1,-4.014603794E-3,4.415661097E-4,-1.284599304E-3,4.238185888E-3
2.064850271E1,8.904077113E-4,5.595535040E-4,-1.286506653E-3,1.661633348E-3
2.066549796E1,5.630381405E-3,6.264746189E-4,-1.287460327E-3,5.809579960E-3
2.068249522E1,-3.910861909E-3,5.913972855E-4,-6.072044373E-3,7.246676099E-3
2.069949093E1,9.421259165E-4,-4.166573286E-3,-1.085948944E-2,1.166946636E-2
2.071648680E1,9.594969451E-4,4.318952560E-4,-1.282691956E-3,1.659055922E-3
2.073348197E1,5.800828338E-3,3.470480442E-4,3.504753113E-3,6.786261572E-3
2.075049098E1,-3.690030426E-3,3.128498793E-4,-1.279830933E-3,3.918184121E-3
2.076748026E1,-3.763146698E-3,5.001097918E-3,-1.277923584E-3,6.387905928E-3
2.078448031E1,9.892694652E-4,-4.439115524E-3,-1.280784607E-3,4.724913748E-3
2.080147580E1,-3.867831081E-3,3.629773855E-4,-6.067276001E-3,7.204422803E-3
2.081847220E1,9.848959744E-4,-4.393637180E-3,3.503799438E-3,5.705320171E-3
2.083545825E1,-3.821592778E-3,-4.466131330E-3,-1.280784607E-3,6.015921344E-3
2.085248059E1,5.804307759E-3,2.344995737E-4,3.506660461E-3,6.785399487E-3
2.086947729E1,-8.459858596E-3,3.022700548E-4,-1.279830933E-3,8.561456761E-3
2.088646384E1,-3.645863384E-3,3.695785999E-4,-1.280784607E-3,3.881921865E-3
2.090346608E1,1.105904579E-3,3.864765167E-4,3.503799438E-3,3.694455243E-3
2.092044930E1,5.743138492E-3,3.525465727E-4,3.504753113E-3,6.737300884E-3
2.093745983E1,1.583583951E-1,1.367043108E-1,-3.489694595E-1,4.068723800E-1
2.095443813E1,-2.130782902E-1,-1.748679876E-1,5.836400986E-1,6.454587016E-1
2.097144696E1,2.983487397E-2,1.948413253E-2,-9.711170197E-2,1.034429011E-1
2.098844552E1,-2.602614462E-3,5.430951715E-3,6.502532959E-2,6.530361649E-2
2.100543035E1,-2.264152095E-2,-6.266713142E-3,4.181003571E-2,4.795820316E-2
